// Start Time: Unknown
// Update Rate: 100.0Hz
// Filter Profile: human (46.1)
// Option Flags: AHS Disabled ICC Disabled 
// Firmware Version: 4.3.4
PacketCounter,SampleTimeFine,Acc_X,Acc_Y,Acc_Z,Gyr_X,Gyr_Y,Gyr_Z,Mag_X,Mag_Y,Mag_Z,Quat_q0,Quat_q1,Quat_q2,Quat_q3
19741,,9.827391,1.434735,0.055291,0.024432,0.012045,0.003956,1.046631,0.485840,0.037109,-0.372076,0.539481,0.451602,0.605455
19742,,9.765499,1.445508,0.134894,0.010210,0.013711,0.001980,1.053467,0.490479,0.036865,-0.372135,0.539461,0.451596,0.605441
19743,,9.749732,1.429972,0.126233,-0.004215,0.018709,-0.003972,1.048828,0.488281,0.041260,-0.372139,0.539446,0.451543,0.605491
19744,,9.732357,1.437578,0.144532,-0.020887,0.030268,-0.006742,1.049072,0.486084,0.039063,-0.372125,0.539414,0.451435,0.605608
19745,,9.644304,1.423628,0.247161,-0.051181,0.019425,-0.013710,1.049072,0.481689,0.037109,-0.371969,0.539467,0.451258,0.605790
19746,,9.681694,1.365472,0.166129,-0.047120,0.014679,-0.018537,1.051270,0.488281,0.034912,-0.371814,0.539504,0.451131,0.605946
19747,,9.634218,1.393353,0.141938,-0.050589,0.003282,-0.018227,1.044434,0.485840,0.041260,-0.371640,0.539574,0.451026,0.606068
19748,,9.812208,1.402954,0.032014,-0.032358,0.002108,-0.020848,1.049072,0.486084,0.041260,-0.371489,0.539617,0.450975,0.606161
19749,,9.804811,1.422288,0.017426,-0.014671,0.011841,-0.019170,1.046631,0.483643,0.041260,-0.371406,0.539607,0.450943,0.606245
19750,,9.858761,1.453676,0.065753,-0.010643,0.024681,-0.019098,1.049072,0.486084,0.039063,-0.371369,0.539545,0.450911,0.606346
19751,,9.786226,1.455997,0.178749,-0.008694,0.036326,-0.018825,1.044189,0.490234,0.039063,-0.371372,0.539442,0.450862,0.606473
19752,,9.818939,1.466025,0.176789,-0.010995,0.032243,-0.010822,1.044434,0.483643,0.039307,-0.371377,0.539376,0.450792,0.606580
19753,,9.754254,1.500013,0.169922,-0.008461,0.029473,-0.005601,1.044189,0.490234,0.043457,-0.371400,0.539324,0.450722,0.606665
19754,,9.764341,1.510789,0.141744,-0.012421,0.031683,-0.003523,1.051270,0.488281,0.041260,-0.371422,0.539279,0.450628,0.606760
19755,,9.720860,1.565297,0.187243,-0.021368,0.038615,-0.005156,1.044434,0.485840,0.045654,-0.371411,0.539239,0.450480,0.606913
19756,,9.769334,1.590237,0.196410,-0.036682,0.040072,-0.010406,1.051270,0.486084,0.049805,-0.371365,0.539199,0.450316,0.607098
19757,,9.709896,1.630247,0.232935,-0.052404,0.048193,-0.023589,1.044189,0.490234,0.047607,-0.371237,0.539146,0.450100,0.607383
19758,,9.636908,1.632497,0.347680,-0.067820,0.036299,-0.021518,1.051025,0.490479,0.047607,-0.371065,0.539150,0.449878,0.607649
19759,,9.743707,1.620101,0.211205,-0.093445,0.030952,-0.019068,1.044189,0.488037,0.049805,-0.370784,0.539246,0.449547,0.607981
19760,,9.642882,1.545189,0.252577,-0.103091,0.031001,-0.016020,1.046631,0.488037,0.047607,-0.370522,0.539343,0.449213,0.608301
19761,,9.753101,1.560639,0.068433,-0.085077,0.014618,-0.015519,1.051025,0.490479,0.043213,-0.370252,0.539471,0.448939,0.608554
19762,,9.787808,1.475248,0.034304,-0.074638,0.015365,-0.016719,1.046631,0.488037,0.049805,-0.370029,0.539561,0.448723,0.608769
19763,,9.784370,1.448770,0.083703,-0.066396,0.017433,-0.014964,1.044189,0.492432,0.043213,-0.369825,0.539643,0.448507,0.608980
19764,,9.780917,1.422270,0.133175,-0.048209,0.021530,-0.017311,1.046631,0.490234,0.045410,-0.369685,0.539664,0.448361,0.609153
19765,,9.767223,1.384780,0.213428,-0.027639,0.014722,-0.006917,1.044434,0.485840,0.041260,-0.369604,0.539698,0.448253,0.609252
19766,,9.736202,1.280732,0.188708,-0.019617,0.013889,0.002621,1.044434,0.485840,0.045654,-0.369585,0.539734,0.448155,0.609304
19767,,9.746574,1.290619,0.158385,0.006130,0.002559,0.011429,1.046631,0.483643,0.050049,-0.369659,0.539762,0.448150,0.609237
19768,,9.772371,1.388656,0.143641,0.023255,0.010874,0.012794,1.049072,0.486084,0.047852,-0.369780,0.539751,0.448160,0.609166
19769,,9.665053,1.400886,0.284804,0.019553,0.000112,0.011596,1.046631,0.483643,0.052002,-0.369868,0.539775,0.448180,0.609077
19770,,9.767426,1.454090,0.221925,0.019422,-0.001768,0.007386,1.048828,0.490479,0.049805,-0.369934,0.539798,0.448216,0.608991
19771,,9.764042,1.498459,0.273781,0.017654,-0.000887,0.006510,1.044189,0.488037,0.049805,-0.369978,0.539830,0.448226,0.608928
19772,,9.762361,1.520643,0.299453,0.015191,-0.003332,0.001045,1.048828,0.490479,0.043213,-0.370009,0.539851,0.448269,0.608858
19773,,9.776309,1.558474,0.335452,0.018599,-0.002585,0.005566,1.044189,0.488037,0.049805,-0.370051,0.539882,0.448296,0.608786
19774,,9.811083,1.544469,0.303898,0.015173,0.004600,-0.001212,1.046631,0.485840,0.045654,-0.370093,0.539874,0.448331,0.608742
19775,,9.755613,1.464638,0.278265,0.018254,0.011202,0.002118,1.048828,0.488281,0.045654,-0.370160,0.539852,0.448342,0.608712
19776,,9.787148,1.422477,0.294173,0.017324,0.004966,0.005322,1.048828,0.488281,0.041260,-0.370229,0.539853,0.448365,0.608652
19777,,9.790412,1.450226,0.248059,0.014719,0.012965,0.000364,1.048828,0.490479,0.049805,-0.370293,0.539824,0.448378,0.608630
19778,,9.743769,1.403238,0.332784,0.007016,0.020268,-0.003270,1.048828,0.488281,0.045654,-0.370342,0.539778,0.448365,0.608650
19779,,9.750444,1.459220,0.356034,0.009329,0.028763,-0.004275,1.049072,0.481445,0.052246,-0.370390,0.539715,0.448322,0.608708
19780,,9.757264,1.442548,0.374740,-0.002728,0.037012,-0.011488,1.051270,0.488281,0.047607,-0.370426,0.539618,0.448270,0.608811
19781,,9.706603,1.441591,0.399359,-0.000018,0.038826,-0.004575,1.044189,0.490234,0.049805,-0.370489,0.539532,0.448191,0.608908
19782,,9.664531,1.473640,0.417999,-0.015606,0.017941,-0.011234,1.044189,0.490234,0.045410,-0.370447,0.539517,0.448134,0.608987
19783,,9.704093,1.466529,0.200780,0.000474,0.010203,-0.008604,1.046631,0.485840,0.045654,-0.370416,0.539516,0.448114,0.609022
19784,,9.728279,1.443272,0.086853,0.012075,0.005926,-0.006787,1.046631,0.490234,0.049805,-0.370437,0.539496,0.448152,0.608999
19785,,9.721142,1.461356,0.070840,0.030688,-0.008979,-0.005917,1.048828,0.488281,0.049805,-0.370465,0.539497,0.448260,0.608902
19786,,9.742205,1.409679,0.115905,0.052483,-0.011869,-0.006737,1.048828,0.490479,0.052002,-0.370554,0.539457,0.448454,0.608741
19787,,9.818804,1.365025,0.067379,0.058191,-0.002626,-0.003216,1.044189,0.488037,0.045654,-0.370659,0.539407,0.448605,0.608610
19788,,9.805096,1.327088,0.144983,0.074709,0.012156,-0.004473,1.048828,0.488281,0.047607,-0.370869,0.539258,0.448816,0.608458
19789,,9.773648,1.369368,0.244108,0.068784,0.010637,-0.004966,1.044189,0.488037,0.047607,-0.371046,0.539130,0.449000,0.608328
19790,,9.759617,1.404530,0.327694,0.059018,0.013211,0.000816,1.044189,0.488037,0.052002,-0.371232,0.539019,0.449147,0.608205
19791,,9.691704,1.410234,0.364970,0.046091,0.017922,-0.005724,1.041992,0.485840,0.045654,-0.371349,0.538918,0.449237,0.608157
19792,,9.667082,1.435536,0.365704,0.027350,0.007978,-0.010742,1.046631,0.488037,0.047607,-0.371402,0.538855,0.449328,0.608112
19793,,9.661747,1.431729,0.438570,0.017802,-0.001589,-0.014940,1.048828,0.488281,0.047607,-0.371388,0.538834,0.449409,0.608079
19794,,9.769364,1.419037,0.297081,0.018771,-0.011213,-0.013603,1.046631,0.488037,0.045654,-0.371367,0.538839,0.449518,0.608008
19795,,9.774330,1.425503,0.222977,0.027318,-0.007062,-0.012913,1.053467,0.490479,0.047607,-0.371366,0.538826,0.449626,0.607940
19796,,9.826144,1.479250,0.294600,0.041343,-0.005368,-0.014854,1.051270,0.488281,0.045410,-0.371415,0.538769,0.449795,0.607835
19797,,9.759940,1.463445,0.304047,0.041902,-0.003923,-0.014476,1.048828,0.490479,0.049805,-0.371449,0.538722,0.449938,0.607750
19798,,9.815267,1.471575,0.210047,0.029153,0.009792,-0.012379,1.049072,0.486084,0.047852,-0.371506,0.538647,0.450036,0.607709
19799,,9.799458,1.457275,0.200654,0.023778,0.017650,-0.014789,1.044189,0.488037,0.041260,-0.371535,0.538569,0.450080,0.607728
19800,,9.766186,1.450227,0.207318,0.009937,0.016130,-0.018125,1.042236,0.481445,0.043701,-0.371538,0.538497,0.450123,0.607758
19801,,9.826640,1.464223,0.157180,-0.007900,0.024737,-0.021681,1.044189,0.494629,0.047607,-0.371520,0.538411,0.450119,0.607848
19802,,9.786176,1.475208,0.150038,-0.021287,0.037804,-0.026689,1.049072,0.483643,0.050049,-0.371462,0.538312,0.450050,0.608023
19803,,9.714461,1.455711,0.237850,-0.043092,0.044186,-0.035142,1.051025,0.490479,0.049805,-0.371308,0.538232,0.449897,0.608300
19804,,9.631642,1.499665,0.476578,-0.074845,0.033512,-0.041685,1.046387,0.492432,0.045410,-0.371050,0.538211,0.449713,0.608612
19805,,9.644414,1.541934,0.517504,-0.092492,0.034349,-0.048228,1.046631,0.485840,0.052002,-0.370701,0.538223,0.449466,0.608997
19806,,9.724981,1.454321,0.079493,-0.026909,0.034842,-0.018982,1.048828,0.488281,0.049805,-0.370644,0.538160,0.449364,0.609162
19807,,9.753424,1.385728,-0.084340,0.009932,0.017055,-0.001885,1.048828,0.490479,0.045410,-0.370694,0.538127,0.449348,0.609173
19808,,9.772634,1.356471,-0.011723,0.019723,-0.019091,-0.002772,1.046631,0.488037,0.049805,-0.370690,0.538179,0.449445,0.609058
19809,,9.843124,1.452715,0.021961,0.022356,-0.031480,-0.004762,1.041992,0.492432,0.047607,-0.370656,0.538262,0.449570,0.608913
19810,,9.844480,1.503331,-0.001978,0.024713,-0.023798,0.000949,1.044189,0.488037,0.045654,-0.370667,0.538328,0.449680,0.608767
19811,,9.801011,1.484245,0.147239,0.023554,-0.003740,0.000103,1.044189,0.490234,0.045410,-0.370706,0.538337,0.449742,0.608689
19812,,9.749163,1.432161,0.188831,0.032362,0.010418,-0.002543,1.051270,0.488281,0.041260,-0.370804,0.538276,0.449822,0.608624
19813,,9.730269,1.389040,0.225633,0.021189,0.003608,-0.003427,1.046387,0.494629,0.049561,-0.370859,0.538251,0.449886,0.608565
19814,,9.683669,1.342037,0.194657,0.014449,0.005682,0.001206,1.039795,0.488037,0.047607,-0.370910,0.538246,0.449910,0.608521
19815,,9.705766,1.413114,0.225384,0.011498,-0.009656,0.006882,1.048828,0.490479,0.047607,-0.370908,0.538322,0.449912,0.608454
19816,,9.759643,1.442077,0.156323,0.001838,-0.016716,0.005437,1.046875,0.481445,0.047852,-0.370887,0.538418,0.449928,0.608370
19817,,9.706910,1.535197,0.091609,-0.002220,-0.024332,0.005572,1.046387,0.492432,0.045410,-0.370842,0.538544,0.449940,0.608277
19818,,9.732915,1.560808,0.068623,0.008135,-0.018347,0.004633,1.048828,0.490479,0.041260,-0.370831,0.538632,0.449980,0.608176
19819,,9.698092,1.574327,0.097700,0.006452,-0.022692,0.003511,1.044189,0.492432,0.045410,-0.370790,0.538741,0.450014,0.608079
19820,,9.720804,1.572310,0.121437,0.008778,-0.022121,0.004769,1.046631,0.488037,0.039063,-0.370773,0.538839,0.450063,0.607966
19821,,9.753885,1.580642,0.113966,-0.007828,-0.023778,0.004001,1.048828,0.490479,0.041260,-0.370699,0.538974,0.450061,0.607893
19822,,9.770037,1.522962,0.117246,-0.031551,-0.024628,0.002222,1.051270,0.488281,0.047607,-0.370560,0.539149,0.449998,0.607869
19823,,9.749836,1.428839,0.058550,-0.032966,-0.018978,-0.002247,1.046631,0.490234,0.047607,-0.370404,0.539308,0.449918,0.607883
19824,,9.779593,1.409837,0.098430,-0.026768,-0.026012,0.001981,1.048828,0.490479,0.045410,-0.370275,0.539478,0.449873,0.607845
19825,,9.823591,1.355956,0.169607,-0.022404,-0.016321,0.000773,1.044434,0.485840,0.049805,-0.370148,0.539624,0.449798,0.607847
19826,,9.757692,1.338155,0.178759,-0.010632,-0.015987,0.004295,1.044434,0.483643,0.045654,-0.370091,0.539739,0.449778,0.607795
19827,,9.839300,1.370882,0.177324,0.001752,-0.011503,0.005673,1.044434,0.485840,0.039063,-0.370079,0.539822,0.449771,0.607733
19828,,9.780151,1.408922,0.322296,-0.012690,-0.006560,-0.000305,1.048828,0.492676,0.047607,-0.370024,0.539901,0.449739,0.607720
19829,,9.682951,1.359669,0.196838,-0.003855,-0.010947,0.004101,1.044189,0.490234,0.045410,-0.369982,0.539996,0.449715,0.607679
19830,,9.743930,1.371676,0.257789,-0.004897,-0.019066,0.003110,1.039795,0.485840,0.037109,-0.369930,0.540106,0.449721,0.607608
19831,,9.728452,1.355687,0.245722,-0.000753,-0.016671,0.002730,1.041992,0.488037,0.041260,-0.369892,0.540200,0.449735,0.607538
19832,,9.749354,1.376460,0.296052,-0.008995,-0.018760,0.000976,1.051270,0.486084,0.043457,-0.369823,0.540312,0.449733,0.607482
19833,,9.784203,1.362628,0.263537,-0.008723,-0.008760,-0.002370,1.048828,0.492676,0.039063,-0.369765,0.540388,0.449717,0.607462
19834,,9.829299,1.359330,0.200842,-0.009833,0.003384,-0.000946,1.049072,0.483887,0.043457,-0.369738,0.540430,0.449677,0.607471
19835,,9.818448,1.422148,0.238227,-0.018494,0.012367,-0.003659,1.048828,0.492676,0.041016,-0.369693,0.540459,0.449592,0.607534
19836,,9.722831,1.424288,0.322770,-0.030366,0.002214,-0.009104,1.049072,0.486084,0.043457,-0.369583,0.540524,0.449514,0.607601
19837,,9.708499,1.459552,0.292343,-0.040686,0.003335,-0.003700,1.046631,0.485840,0.041260,-0.369448,0.540628,0.449372,0.607696
19838,,9.731410,1.385092,0.199140,-0.024553,-0.001676,-0.003571,1.046631,0.488037,0.047607,-0.369362,0.540706,0.449304,0.607729
19839,,9.753824,1.383663,0.110340,-0.017659,-0.009782,-0.001742,1.044189,0.488037,0.039063,-0.369273,0.540807,0.449253,0.607731
19840,,9.780190,1.336945,0.083095,-0.002086,-0.016239,-0.001992,1.049072,0.486084,0.047852,-0.369219,0.540893,0.449275,0.607671
19841,,9.811023,1.368650,-0.011855,0.014497,-0.006649,-0.003517,1.041992,0.485840,0.043457,-0.369220,0.540919,0.449323,0.607611
19842,,9.791721,1.398495,0.029739,0.015763,0.008770,-0.003345,1.049072,0.483887,0.039307,-0.369267,0.540893,0.449358,0.607581
19843,,9.734368,1.414643,0.150745,0.009605,0.018508,-0.010073,1.044189,0.488037,0.045654,-0.369309,0.540826,0.449379,0.607600
19844,,9.659809,1.365068,0.167892,-0.000067,0.011443,-0.011505,1.046631,0.485840,0.049805,-0.369295,0.540801,0.449382,0.607627
19845,,9.673362,1.404333,0.204639,-0.013591,-0.006574,-0.008843,1.046631,0.488037,0.043457,-0.369188,0.540878,0.449342,0.607654
19846,,9.689418,1.347521,0.208553,-0.005840,-0.021784,-0.002925,1.055664,0.490479,0.039063,-0.369109,0.540985,0.449366,0.607589
19847,,9.804936,1.440227,0.065735,0.004170,-0.020569,-0.000293,1.044189,0.488037,0.045654,-0.369056,0.541084,0.449397,0.607510
19848,,9.780389,1.464630,0.064113,0.015398,-0.011049,-0.001941,1.044189,0.490234,0.039063,-0.369062,0.541121,0.449463,0.607424
19849,,9.761086,1.494514,0.104697,0.021100,-0.006197,-0.005404,1.051270,0.486084,0.045654,-0.369065,0.541136,0.449529,0.607361
19850,,9.766267,1.500489,0.145713,0.018171,-0.000291,-0.009303,1.044189,0.488037,0.039063,-0.369080,0.541119,0.449603,0.607312
19851,,9.778532,1.489364,0.203153,0.011835,0.009260,-0.010757,1.044189,0.490234,0.041260,-0.369087,0.541087,0.449632,0.607315
19852,,9.686026,1.519736,0.240201,0.007773,0.001638,-0.010618,1.046631,0.488037,0.041260,-0.369074,0.541080,0.449675,0.607297
19853,,9.689936,1.475376,0.301610,-0.007477,-0.023430,-0.006553,1.046631,0.490234,0.039063,-0.368960,0.541196,0.449691,0.607251
19854,,9.836334,1.403197,0.189515,-0.000405,-0.026938,-0.003034,1.044189,0.488037,0.041260,-0.368884,0.541308,0.449742,0.607160
19855,,9.831006,1.398376,0.145873,0.000984,-0.014038,-0.005629,1.046631,0.483643,0.034912,-0.368819,0.541380,0.449766,0.607116
19856,,9.806379,1.423264,0.144962,0.010699,-0.004266,-0.006720,1.044189,0.490234,0.043457,-0.368813,0.541394,0.449819,0.607069
19857,,9.763084,1.404590,0.181610,0.015497,0.009401,-0.004799,1.041992,0.488037,0.041260,-0.368857,0.541362,0.449853,0.607046
19858,,9.752732,1.394670,0.214011,0.023700,0.019422,-0.005324,1.046387,0.492432,0.041260,-0.368944,0.541283,0.449897,0.607030
19859,,9.710675,1.426330,0.230794,0.028525,0.010119,-0.003299,1.046631,0.490234,0.039063,-0.369003,0.541244,0.449944,0.606995
19860,,9.719015,1.459817,0.225517,0.020708,-0.003050,-0.004085,1.048828,0.488281,0.045654,-0.369035,0.541242,0.450017,0.606923
19861,,9.680715,1.446169,0.188207,0.016086,-0.012122,-0.004314,1.051270,0.488281,0.039063,-0.369008,0.541292,0.450067,0.606857
19862,,9.770796,1.439826,0.061823,0.019022,-0.007399,-0.005204,1.044189,0.488037,0.036865,-0.369022,0.541304,0.450146,0.606779
19863,,9.753291,1.447459,0.076612,0.024156,-0.003999,-0.009044,1.051270,0.483887,0.037109,-0.369042,0.541290,0.450239,0.606711
19864,,9.761569,1.481325,0.070828,0.030240,0.002120,-0.006862,1.051025,0.490479,0.036865,-0.369103,0.541248,0.450339,0.606637
19865,,9.759598,1.504727,0.096773,0.033173,0.006842,-0.007753,1.044189,0.488037,0.041260,-0.369183,0.541184,0.450441,0.606570
19866,,9.729928,1.524853,0.170164,0.025151,0.012042,-0.010337,1.044434,0.483643,0.039307,-0.369242,0.541114,0.450517,0.606540
19867,,9.703977,1.499665,0.191465,0.017210,0.001396,-0.008358,1.046631,0.490234,0.039063,-0.369259,0.541096,0.450576,0.606501
19868,,9.719420,1.516079,0.201650,0.003451,-0.000950,-0.004958,1.042236,0.483643,0.030762,-0.369246,0.541118,0.450595,0.606476
19869,,9.788993,1.488836,0.139115,0.002805,0.002824,-0.005094,1.044189,0.490234,0.034668,-0.369251,0.541120,0.450616,0.606455
19870,,9.781717,1.506890,0.123586,0.004185,0.000674,-0.009859,1.048828,0.490479,0.036865,-0.369229,0.541125,0.450647,0.606441
19871,,9.730860,1.505704,0.030130,0.013414,0.003772,-0.011565,1.046387,0.492432,0.036865,-0.369223,0.541104,0.450697,0.606426
19872,,9.703028,1.503325,0.077089,0.011041,0.000497,-0.010299,1.049072,0.481689,0.034912,-0.369217,0.541096,0.450752,0.606397
19873,,9.727451,1.480141,0.076632,0.004658,-0.007700,-0.011403,1.048828,0.488281,0.039063,-0.369180,0.541116,0.450808,0.606359
19874,,9.718934,1.448125,0.081048,-0.003061,-0.011049,-0.010261,1.046631,0.490234,0.036865,-0.369110,0.541169,0.450840,0.606331
19875,,9.745253,1.402260,0.053945,-0.008021,-0.014274,-0.011693,1.046631,0.490234,0.041260,-0.369003,0.541245,0.450853,0.606319
19876,,9.758808,1.441455,0.089206,-0.003622,-0.008074,-0.003678,1.048828,0.488281,0.034912,-0.368958,0.541304,0.450860,0.606287
19877,,9.789820,1.473398,0.109232,-0.001251,-0.004800,-0.004944,1.048828,0.488281,0.039063,-0.368910,0.541355,0.450857,0.606274
19878,,9.770436,1.503653,0.150542,0.002370,-0.001151,-0.008221,1.044434,0.485840,0.037109,-0.368884,0.541372,0.450882,0.606256
19879,,9.796098,1.530473,0.129376,-0.002459,-0.002476,-0.005453,1.046631,0.490234,0.041260,-0.368847,0.541410,0.450880,0.606246
19880,,9.778607,1.537909,0.144926,-0.007246,-0.001102,-0.005204,1.049072,0.481689,0.037109,-0.368804,0.541452,0.450867,0.606244
19881,,9.712635,1.520754,0.155556,-0.019063,-0.004154,-0.006194,1.046631,0.488037,0.034912,-0.368718,0.541524,0.450819,0.606268
19882,,9.726903,1.486817,0.186737,-0.029071,-0.005383,-0.008822,1.048828,0.492676,0.039063,-0.368595,0.541610,0.450758,0.606311
19883,,9.727509,1.414608,0.181455,-0.036103,-0.009811,-0.010059,1.048828,0.488281,0.043457,-0.368422,0.541731,0.450671,0.606373
19884,,9.789777,1.405633,0.102873,-0.035894,-0.006937,-0.017848,1.046631,0.485840,0.041260,-0.368250,0.541814,0.450617,0.606444
19885,,9.791442,1.384517,0.076898,-0.024207,-0.001359,-0.014102,1.048828,0.488281,0.036865,-0.368116,0.541880,0.450552,0.606514
19886,,9.745823,1.388846,0.025277,-0.022568,0.000289,-0.010466,1.046631,0.488037,0.034912,-0.368019,0.541933,0.450505,0.606560
19887,,9.733564,1.402127,0.082834,-0.018039,-0.000457,-0.012161,1.041992,0.490234,0.043457,-0.367928,0.541976,0.450476,0.606599
19888,,9.789057,1.410578,0.103710,-0.024900,-0.000290,-0.011716,1.048584,0.494873,0.036865,-0.367819,0.542033,0.450426,0.606652
19889,,9.728335,1.399192,0.156414,-0.029691,0.001079,-0.011462,1.048828,0.490479,0.036865,-0.367663,0.542118,0.450323,0.606746
19890,,9.713763,1.434891,0.125934,-0.028013,0.005427,-0.010340,1.046631,0.490234,0.034668,-0.367563,0.542166,0.450250,0.606819
19891,,9.712492,1.385526,0.147791,-0.030045,0.006925,-0.012662,1.046631,0.488037,0.039063,-0.367445,0.542213,0.450165,0.606911
19892,,9.694880,1.393638,0.164266,-0.019515,0.002490,-0.014107,1.053711,0.483887,0.039307,-0.367349,0.542246,0.450133,0.606963
19893,,9.784777,1.388640,0.039513,-0.025427,0.000957,-0.014600,1.044189,0.488037,0.039063,-0.367239,0.542292,0.450083,0.607026
19894,,9.790933,1.445879,0.061069,-0.020689,0.007515,-0.017122,1.044189,0.492432,0.039063,-0.367142,0.542305,0.450046,0.607100
19895,,9.752810,1.433531,0.140062,-0.018099,0.003050,-0.021386,1.048584,0.494873,0.038818,-0.367013,0.542327,0.450020,0.607178
19896,,9.760776,1.468700,0.135676,-0.010771,0.009560,-0.021211,1.048828,0.490479,0.034668,-0.366936,0.542306,0.450021,0.607242
19897,,9.749211,1.409584,0.188949,-0.012414,0.012325,-0.017885,1.046631,0.488037,0.036865,-0.366852,0.542299,0.449985,0.607326
19898,,9.729568,1.440691,0.231722,-0.009040,0.005983,-0.017819,1.046631,0.488037,0.039063,-0.366781,0.542294,0.449988,0.607371
19899,,9.713806,1.426718,0.221712,-0.019258,-0.002560,-0.019621,1.051025,0.490479,0.039063,-0.366663,0.542327,0.449980,0.607419
19900,,9.779389,1.446337,0.211526,-0.008222,0.006806,-0.015998,1.048828,0.490479,0.032715,-0.366602,0.542322,0.449980,0.607461
19901,,9.728470,1.445720,0.118479,-0.001695,0.001867,-0.012863,1.044189,0.490234,0.036865,-0.366558,0.542327,0.449996,0.607470
19902,,9.775676,1.421176,0.144292,0.000731,-0.002778,-0.011857,1.048828,0.488281,0.039063,-0.366512,0.542344,0.450029,0.607458
19903,,9.763009,1.434441,0.086597,-0.002196,-0.007511,-0.010972,1.046631,0.488037,0.041260,-0.366451,0.542383,0.450055,0.607441
19904,,9.778336,1.451286,0.096287,0.005226,-0.006218,-0.011043,1.046631,0.488037,0.036865,-0.366412,0.542404,0.450106,0.607408
19905,,9.772888,1.447245,0.054084,0.001681,-0.004475,-0.012797,1.048828,0.492676,0.036865,-0.366365,0.542421,0.450143,0.607394
19906,,9.735864,1.484632,0.111332,-0.003767,0.000659,-0.012670,1.041992,0.485840,0.043457,-0.366313,0.542434,0.450158,0.607403
19907,,9.734681,1.435445,0.132387,-0.006754,0.003852,-0.014050,1.041992,0.492432,0.036865,-0.366247,0.542445,0.450148,0.607440
19908,,9.701577,1.427721,0.138069,-0.015983,0.000724,-0.012344,1.041748,0.494629,0.039063,-0.366162,0.542481,0.450125,0.607476
19909,,9.714848,1.467557,0.174682,-0.008001,-0.000943,-0.019000,1.046631,0.490234,0.036865,-0.366052,0.542504,0.450128,0.607519
19910,,9.745534,1.500714,0.195597,-0.009383,0.001195,-0.014232,1.048828,0.488281,0.036865,-0.365981,0.542522,0.450129,0.607545
19911,,9.793294,1.527300,0.086470,-0.010728,0.001623,-0.018935,1.051025,0.492676,0.041016,-0.365899,0.542528,0.450139,0.607583
19912,,9.782843,1.518381,0.117958,-0.006363,0.000705,-0.015363,1.048828,0.488281,0.041260,-0.365831,0.542539,0.450153,0.607602
19913,,9.774447,1.486531,0.123049,-0.002851,-0.003740,-0.011098,1.044189,0.494629,0.039063,-0.365762,0.542579,0.450153,0.607609
19914,,9.767022,1.504955,0.107422,-0.002951,0.001483,-0.010850,1.046631,0.488037,0.039063,-0.365719,0.542592,0.450164,0.607615
19915,,9.735932,1.474547,0.086880,0.000366,0.003072,-0.013049,1.039551,0.490234,0.043457,-0.365670,0.542596,0.450173,0.607634
19916,,9.727534,1.442800,0.092174,-0.001569,-0.000655,-0.015617,1.051025,0.494873,0.038818,-0.365612,0.542602,0.450206,0.607640
19917,,9.764221,1.408198,0.034804,-0.004034,0.001283,-0.014109,1.044189,0.492432,0.041260,-0.365530,0.542627,0.450195,0.607675
19918,,9.727124,1.445564,0.092185,-0.001603,-0.003359,-0.013106,1.046631,0.490234,0.036865,-0.365473,0.542647,0.450225,0.607669
19919,,9.827645,1.451380,0.049787,-0.003967,-0.006644,-0.011847,1.046387,0.492432,0.041260,-0.365396,0.542691,0.450236,0.607668
19920,,9.770778,1.517820,0.034484,-0.000198,0.006033,-0.006463,1.048828,0.492676,0.034668,-0.365384,0.542695,0.450236,0.607672
19921,,9.710165,1.505476,0.086887,-0.009881,-0.003778,-0.005382,1.046387,0.492432,0.043213,-0.365314,0.542757,0.450204,0.607681
19922,,9.723522,1.544314,0.123138,-0.017303,-0.005081,-0.005310,1.046631,0.488037,0.036865,-0.365234,0.542829,0.450169,0.607691
19923,,9.700712,1.546413,0.097353,-0.022464,0.002123,-0.006246,1.044189,0.488037,0.039063,-0.365146,0.542892,0.450092,0.607745
19924,,9.722073,1.495335,0.029950,-0.008999,0.002455,-0.008582,1.046631,0.490234,0.039063,-0.365096,0.542918,0.450077,0.607763
19925,,9.716654,1.491143,-0.011727,-0.003410,-0.005191,-0.011473,1.046631,0.490234,0.043457,-0.365037,0.542950,0.450095,0.607756
19926,,9.739187,1.490825,0.013454,-0.002617,-0.011482,-0.014106,1.041992,0.490234,0.036865,-0.364956,0.542994,0.450140,0.607732
19927,,9.763760,1.467865,0.012228,0.004640,-0.010363,-0.008910,1.044189,0.490234,0.036865,-0.364905,0.543039,0.450176,0.607696
19928,,9.741274,1.470162,0.099938,-0.002457,-0.006887,-0.012413,1.046631,0.490234,0.036865,-0.364839,0.543073,0.450209,0.607681
19929,,9.761835,1.492216,0.151240,-0.007842,-0.009689,-0.010022,1.046631,0.488037,0.036865,-0.364764,0.543129,0.450221,0.607667
19930,,9.810018,1.518057,0.155764,-0.007945,-0.004466,-0.009771,1.044189,0.494629,0.036865,-0.364697,0.543171,0.450225,0.607666
19931,,9.769705,1.527167,0.145345,-0.011922,-0.002287,-0.007696,1.046631,0.490234,0.039063,-0.364628,0.543221,0.450200,0.607682
19932,,9.752131,1.534671,0.160993,-0.014254,-0.002870,-0.008946,1.046387,0.492432,0.036865,-0.364551,0.543272,0.450179,0.607698
19933,,9.729249,1.537155,0.134919,-0.017143,-0.004905,-0.010572,1.039551,0.492432,0.036865,-0.364449,0.543336,0.450146,0.607726
19934,,9.766016,1.502251,0.077155,-0.011790,-0.004807,-0.010454,1.044189,0.488037,0.032715,-0.364369,0.543385,0.450141,0.607734
19935,,9.740295,1.476758,0.098123,-0.008712,0.004529,-0.009642,1.048828,0.490479,0.039063,-0.364331,0.543394,0.450133,0.607755
19936,,9.773060,1.486597,0.093162,0.002231,0.001397,-0.005459,1.044189,0.492432,0.036865,-0.364319,0.543410,0.450145,0.607739
19937,,9.795714,1.485586,0.119244,0.004299,0.002607,-0.005650,1.039551,0.490234,0.041260,-0.364307,0.543423,0.450150,0.607731
19938,,9.772909,1.487556,0.093734,0.006789,0.007787,-0.002706,1.039551,0.490234,0.034912,-0.364329,0.543417,0.450157,0.607717
19939,,9.695773,1.531727,0.141250,0.002039,-0.001495,0.002317,1.046631,0.490234,0.034668,-0.364332,0.543459,0.450148,0.607685
19940,,9.755434,1.494387,0.109431,-0.000687,-0.003344,-0.004577,1.044189,0.490234,0.034668,-0.364303,0.543497,0.450157,0.607662
19941,,9.732606,1.496547,0.083213,-0.007126,-0.003642,-0.007953,1.044189,0.490234,0.039063,-0.364256,0.543533,0.450162,0.607654
19942,,9.769486,1.461051,0.025463,-0.002625,-0.002662,-0.000184,1.051025,0.490479,0.034668,-0.364238,0.543582,0.450153,0.607628
19943,,9.754049,1.445330,0.014845,0.009888,-0.000624,-0.001584,1.041992,0.488037,0.036865,-0.364254,0.543599,0.450176,0.607586
19944,,9.751993,1.468014,0.040690,0.016753,-0.000766,-0.002033,1.044189,0.492432,0.036865,-0.364286,0.543603,0.450227,0.607525
19945,,9.760098,1.501213,0.035310,0.025815,0.002194,0.001528,1.044189,0.492432,0.036865,-0.364361,0.543589,0.450286,0.607450
19946,,9.734544,1.474692,0.056057,0.027617,0.004029,-0.000105,1.048828,0.490479,0.032715,-0.364440,0.543562,0.450356,0.607374
19947,,9.737378,1.502630,0.009068,0.023188,-0.000469,0.001346,1.044189,0.490234,0.034668,-0.364500,0.543561,0.450412,0.607297
19948,,9.718679,1.582432,0.029566,0.018922,-0.004783,-0.002471,1.044189,0.490234,0.034668,-0.364528,0.543572,0.450479,0.607221
19949,,9.770186,1.512195,0.002760,0.007026,0.000040,-0.005716,1.044189,0.494629,0.034668,-0.364529,0.543580,0.450509,0.607192
19950,,9.719782,1.510264,0.023842,0.005117,0.003429,-0.003834,1.046387,0.494629,0.032471,-0.364533,0.543588,0.450522,0.607172
19951,,9.759876,1.502669,0.034504,0.009970,0.007482,-0.009110,1.046387,0.494629,0.038818,-0.364528,0.543572,0.450542,0.607174
19952,,9.724825,1.516970,0.066235,0.008565,0.002501,-0.008791,1.048828,0.492676,0.039063,-0.364525,0.543565,0.450581,0.607153
19953,,9.751529,1.471109,0.040111,0.003740,0.001150,-0.006025,1.044189,0.492432,0.036865,-0.364484,0.543598,0.450567,0.607159
19954,,9.751416,1.471853,0.040311,-0.000074,0.003510,-0.009219,1.048584,0.497070,0.030273,-0.364459,0.543603,0.450579,0.607161
19955,,9.801654,1.474895,0.019908,-0.000343,0.008551,-0.003704,1.051025,0.490479,0.039063,-0.364444,0.543616,0.450550,0.607180
19956,,9.759358,1.505985,0.036600,0.005566,0.010104,-0.003210,1.046631,0.490234,0.039063,-0.364467,0.543604,0.450551,0.607176
19957,,9.735748,1.457659,0.032308,0.006975,0.010668,-0.010485,1.044189,0.490234,0.034668,-0.364460,0.543582,0.450553,0.607198
19958,,9.738850,1.486096,0.100521,0.000983,0.001008,-0.003450,1.048584,0.494873,0.036865,-0.364450,0.543606,0.450557,0.607180
19959,,9.775779,1.450529,0.043121,0.004004,0.000524,-0.004582,1.044189,0.492432,0.039063,-0.364430,0.543631,0.450558,0.607168
19960,,9.725384,1.448478,0.064020,0.002202,-0.001311,-0.002948,1.044189,0.494629,0.034668,-0.364419,0.543661,0.450569,0.607140
19961,,9.746780,1.520287,0.095312,0.005380,0.002803,-0.002390,1.044189,0.492432,0.032471,-0.364405,0.543688,0.450557,0.607134
19962,,9.779625,1.529568,0.090575,0.002806,0.009962,-0.000637,1.046387,0.492432,0.034668,-0.364428,0.543687,0.450542,0.607132
19963,,9.783734,1.484527,0.039810,-0.005384,0.017645,-0.000445,1.041992,0.492432,0.032471,-0.364441,0.543682,0.450481,0.607174
19964,,9.771142,1.496794,-0.015487,-0.000004,0.020448,-0.002834,1.044189,0.490234,0.032715,-0.364473,0.543650,0.450445,0.607210
19965,,9.703233,1.501626,0.022772,-0.009774,0.011432,-0.008462,1.046387,0.494629,0.038818,-0.364446,0.543646,0.450414,0.607253
19966,,9.717728,1.467818,0.054685,-0.014910,0.000885,-0.009079,1.048828,0.492676,0.034668,-0.364374,0.543686,0.450385,0.607281
19967,,9.735099,1.461816,0.039230,-0.017960,-0.001334,-0.005439,1.041992,0.492432,0.036865,-0.364279,0.543762,0.450317,0.607321
19968,,9.782517,1.436893,0.064950,-0.012763,-0.005830,-0.007009,1.048828,0.490479,0.034668,-0.364204,0.543823,0.450301,0.607322
19969,,9.814570,1.395953,0.080273,0.001803,0.001836,-0.001632,1.044189,0.492432,0.036865,-0.364197,0.543851,0.450291,0.607309
19970,,9.792946,1.447579,0.148210,0.010833,0.002100,0.004441,1.044189,0.490234,0.034668,-0.364239,0.543872,0.450301,0.607258
19971,,9.803163,1.457803,0.117367,0.014857,0.009743,0.004310,1.044189,0.492432,0.036865,-0.364303,0.543865,0.450301,0.607226
19972,,9.735348,1.461877,0.154709,0.011443,0.008955,-0.000201,1.046631,0.490234,0.034668,-0.364348,0.543853,0.450313,0.607201
19973,,9.706635,1.407667,0.108303,0.002622,0.002662,0.000185,1.046387,0.492432,0.036865,-0.364349,0.543882,0.450297,0.607186
19974,,9.719899,1.446314,0.145122,0.001567,0.005162,-0.005583,1.044189,0.490234,0.041260,-0.364343,0.543887,0.450301,0.607182
19975,,9.780360,1.459778,0.093472,0.004716,0.006574,-0.002514,1.048828,0.492676,0.036865,-0.364337,0.543903,0.450279,0.607188
19976,,9.787606,1.442817,0.110160,0.009321,0.018371,-0.004779,1.048828,0.490479,0.030518,-0.364384,0.543855,0.450280,0.607202
19977,,9.759860,1.439291,0.158912,0.014826,0.023069,-0.002966,1.046631,0.490234,0.030518,-0.364460,0.543790,0.450278,0.607216
19978,,9.770750,1.500647,0.108853,0.007115,0.019680,-0.001831,1.041992,0.490234,0.030518,-0.364513,0.543750,0.450262,0.607232
19979,,9.705729,1.532981,0.100492,-0.001260,0.020060,-0.000825,1.046387,0.494629,0.036865,-0.364563,0.543714,0.450232,0.607256
19980,,9.692408,1.494849,0.065515,-0.007473,0.009312,-0.004705,1.046631,0.490234,0.041260,-0.364545,0.543725,0.450198,0.607282
19981,,9.702491,1.506175,0.035154,-0.011993,0.005619,-0.009969,1.048584,0.497070,0.034668,-0.364464,0.543761,0.450143,0.607340
19982,,9.774503,1.457562,-0.052739,-0.002676,0.007962,-0.004955,1.046387,0.492432,0.036865,-0.364454,0.543767,0.450128,0.607352
19983,,9.776561,1.435534,-0.077520,0.000124,0.017922,-0.005586,1.041992,0.492432,0.039063,-0.364447,0.543752,0.450079,0.607405
19984,,9.776617,1.435898,0.038565,0.008207,0.015465,-0.005522,1.044434,0.485840,0.034912,-0.364482,0.543714,0.450084,0.607414
19985,,9.751747,1.460318,0.039652,0.006779,0.007784,-0.002698,1.039551,0.494629,0.036865,-0.364507,0.543707,0.450087,0.607404
19986,,9.774402,1.458908,0.066374,0.012254,0.009783,0.001628,1.046631,0.490234,0.039063,-0.364562,0.543695,0.450095,0.607375
19987,,9.714609,1.496077,0.098167,0.009052,0.002968,0.003574,1.041992,0.490234,0.039063,-0.364578,0.543726,0.450080,0.607349
19988,,9.737314,1.494336,0.124315,0.006723,0.002382,0.002320,1.046387,0.492432,0.036865,-0.364604,0.543748,0.450083,0.607312
19989,,9.755587,1.538208,0.088487,0.003784,0.010966,-0.004079,1.046387,0.496826,0.036621,-0.364606,0.543745,0.450060,0.607331
19990,,9.752535,1.510681,0.022117,0.002977,0.017256,-0.001449,1.041992,0.488037,0.032715,-0.364643,0.543720,0.450035,0.607349
19991,,9.722573,1.529707,0.096877,0.000967,0.021445,-0.006279,1.048584,0.497070,0.034668,-0.364659,0.543680,0.449999,0.607401
19992,,9.754564,1.488927,0.114217,-0.006075,0.014287,-0.005025,1.048828,0.488281,0.036865,-0.364655,0.543673,0.449962,0.607438
19993,,9.782253,1.493199,0.068871,-0.008836,0.014145,-0.002455,1.051270,0.488281,0.036865,-0.364636,0.543687,0.449893,0.607488
19994,,9.772751,1.533315,0.080926,-0.012123,0.015252,-0.002771,1.046631,0.490234,0.039063,-0.364623,0.543693,0.449829,0.607537
19995,,9.771899,1.483126,0.103373,-0.008546,0.016220,-0.003520,1.044189,0.490234,0.036865,-0.364618,0.543691,0.449766,0.607589
19996,,9.764569,1.500652,0.089506,-0.011309,0.016078,-0.000952,1.048828,0.490479,0.036865,-0.364616,0.543697,0.449699,0.607635
19997,,9.738901,1.474468,0.111961,-0.009363,0.015392,-0.005338,1.041992,0.490234,0.039063,-0.364599,0.543694,0.449642,0.607689
19998,,9.748313,1.434831,0.102965,-0.002963,0.012998,0.000561,1.041992,0.490234,0.034668,-0.364617,0.543698,0.449601,0.607706
19999,,9.776105,1.438750,0.057447,0.005967,0.014071,-0.000057,1.041748,0.494629,0.041016,-0.364657,0.543681,0.449582,0.607711
20000,,9.743208,1.429609,0.063795,0.010765,0.012723,-0.000303,1.044189,0.492432,0.036865,-0.364709,0.543658,0.449585,0.607698
20001,,9.831574,1.446579,0.080650,0.010503,0.013346,-0.001744,1.046387,0.492432,0.039063,-0.364728,0.543648,0.449564,0.607711
20002,,9.793573,1.432424,0.045452,0.012858,0.016632,-0.002995,1.046387,0.494629,0.038818,-0.364786,0.543603,0.449574,0.607708
20003,,9.776791,1.489844,0.042083,0.011782,0.023543,-0.001805,1.044189,0.490234,0.039063,-0.364832,0.543560,0.449537,0.607746
20004,,9.707935,1.443869,0.101153,0.008349,0.020053,-0.003815,1.046631,0.488037,0.041260,-0.364883,0.543512,0.449530,0.607765
20005,,9.683046,1.468236,0.103024,0.008900,0.021503,-0.003437,1.041748,0.494629,0.039063,-0.364932,0.543465,0.449506,0.607795
20006,,9.642808,1.476853,0.094214,0.004363,0.015111,-0.006201,1.048828,0.490479,0.036865,-0.364954,0.543433,0.449502,0.607813
20007,,9.690886,1.502709,0.101116,0.000291,0.018088,-0.010847,1.046387,0.492432,0.034668,-0.364939,0.543401,0.449474,0.607872
20008,,9.787761,1.430230,0.129091,0.001104,0.018915,-0.009027,1.051025,0.492676,0.032471,-0.364952,0.543357,0.449461,0.607913
20009,,9.801006,1.469470,0.053299,0.012093,0.028312,-0.005371,1.044434,0.485840,0.037109,-0.365026,0.543274,0.449452,0.607949
20010,,9.742380,1.434357,0.081281,0.012880,0.019326,-0.005492,1.039551,0.490234,0.034912,-0.365082,0.543216,0.449464,0.607958
20011,,9.762571,1.456193,0.134759,0.007794,0.011482,-0.008635,1.046631,0.490234,0.041260,-0.365114,0.543173,0.449495,0.607955
20012,,9.752102,1.446432,0.166915,0.005729,0.010272,-0.008451,1.046631,0.490234,0.041260,-0.365121,0.543148,0.449510,0.607961
20013,,9.769566,1.440413,0.152275,0.006803,0.010476,-0.005189,1.044434,0.485840,0.037109,-0.365128,0.543139,0.449499,0.607974
20014,,9.762252,1.458037,0.137892,0.008308,0.017350,-0.001300,1.046631,0.490234,0.039063,-0.365181,0.543104,0.449490,0.607980
20015,,9.761356,1.407953,0.160196,0.011772,0.016421,-0.006243,1.044189,0.494629,0.039063,-0.365235,0.543050,0.449508,0.607983
20016,,9.784630,1.457475,0.166937,0.012844,0.016626,-0.002980,1.044189,0.492432,0.039063,-0.365293,0.543005,0.449518,0.607980
20017,,9.766976,1.464405,0.184148,0.012984,0.021220,-0.001288,1.048828,0.492676,0.036865,-0.365343,0.542965,0.449493,0.608005
20018,,9.770036,1.492424,0.139340,0.010248,0.023775,-0.001233,1.048828,0.492676,0.039063,-0.365415,0.542907,0.449478,0.608024
20019,,9.753201,1.549786,0.136438,0.001900,0.026848,-0.002762,1.049072,0.486084,0.045654,-0.365452,0.542862,0.449419,0.608085
20020,,9.712128,1.507928,0.149128,-0.004111,0.023393,-0.007479,1.044189,0.494629,0.039063,-0.365466,0.542818,0.449377,0.608147
20021,,9.731896,1.479404,0.110299,-0.016707,0.029262,-0.008397,1.042236,0.483643,0.039307,-0.365439,0.542789,0.449267,0.608271
20022,,9.727053,1.525521,0.165616,-0.018453,0.032819,-0.011786,1.048584,0.494873,0.038818,-0.365422,0.542733,0.449176,0.608399
20023,,9.686689,1.534812,0.158238,-0.018593,0.028223,-0.013476,1.044434,0.485840,0.039063,-0.365392,0.542684,0.449097,0.608518
20024,,9.711258,1.512285,0.161167,-0.024893,0.022693,-0.017133,1.048828,0.488281,0.041260,-0.365318,0.542659,0.449019,0.608642
20025,,9.705416,1.508604,0.236121,-0.033835,0.011805,-0.018482,1.044189,0.490234,0.043457,-0.365207,0.542671,0.448944,0.608754
20026,,9.803701,1.487463,0.128852,-0.032094,0.008243,-0.015091,1.046387,0.492432,0.034668,-0.365087,0.542707,0.448866,0.608851
20027,,9.796182,1.455532,0.021183,-0.019504,0.019299,-0.007767,1.044434,0.485840,0.045654,-0.365047,0.542703,0.448782,0.608940
20028,,9.747146,1.431233,0.132065,-0.007943,0.015929,-0.012614,1.044189,0.492432,0.043213,-0.365018,0.542677,0.448756,0.609000
20029,,9.716462,1.400498,0.112507,-0.000298,0.013929,-0.008700,1.041992,0.490234,0.041260,-0.365010,0.542657,0.448733,0.609040
20030,,9.742014,1.427793,0.093117,0.008601,0.012313,-0.006787,1.048828,0.492676,0.036865,-0.365035,0.542625,0.448748,0.609042
20031,,9.766841,1.404030,0.094156,0.019897,0.010484,0.003095,1.041992,0.490234,0.039063,-0.365118,0.542599,0.448773,0.608997
20032,,9.777353,1.464617,0.157426,0.021930,0.008998,0.005422,1.041992,0.492432,0.043213,-0.365209,0.542580,0.448802,0.608938
20033,,9.777416,1.464132,0.158028,0.023992,0.010208,0.005244,1.039551,0.490234,0.039063,-0.365301,0.542557,0.448828,0.608885
20034,,9.715734,1.574073,0.194912,0.015093,0.011823,0.003328,1.044189,0.494629,0.036865,-0.365373,0.542537,0.448836,0.608853
20035,,9.722114,1.506207,0.232159,0.007576,0.008607,-0.000841,1.041748,0.494629,0.039063,-0.365402,0.542531,0.448838,0.608840
20036,,9.712461,1.495827,0.149401,0.002642,0.005357,-0.002305,1.051270,0.486084,0.043457,-0.365409,0.542541,0.448836,0.608828
20037,,9.747743,1.482591,0.118733,0.007962,0.002770,0.000349,1.044189,0.492432,0.036865,-0.365429,0.542559,0.448839,0.608798
20038,,9.785423,1.497245,0.155536,0.006345,0.001113,-0.003293,1.048828,0.488281,0.043457,-0.365434,0.542573,0.448858,0.608769
20039,,9.760533,1.521365,0.155638,0.007286,0.006534,0.000222,1.046387,0.492432,0.041260,-0.365463,0.542577,0.448856,0.608749
20040,,9.750050,1.510891,0.187638,-0.004610,0.011325,-0.003087,1.046631,0.490234,0.041260,-0.365461,0.542580,0.448823,0.608771
20041,,9.749137,1.460783,0.209666,-0.010220,0.011839,-0.004678,1.044189,0.492432,0.045410,-0.365430,0.542596,0.448763,0.608820
20042,,9.696931,1.481376,0.143025,-0.013767,0.013562,-0.006447,1.048828,0.488281,0.045654,-0.365398,0.542602,0.448707,0.608876
20043,,9.714480,1.475308,0.129017,-0.015831,0.012351,-0.006269,1.046631,0.488037,0.049805,-0.365339,0.542629,0.448621,0.608950
20044,,9.707135,1.493424,0.114562,-0.024443,0.006232,-0.011200,1.051025,0.490479,0.041260,-0.365248,0.542666,0.448559,0.609018
20045,,9.767189,1.457028,0.084835,-0.016930,0.009448,-0.007026,1.046387,0.492432,0.043213,-0.365184,0.542698,0.448482,0.609084
20046,,9.802403,1.444449,0.055284,-0.019382,0.014072,-0.008035,1.048828,0.490479,0.047607,-0.365133,0.542709,0.448412,0.609156
20047,,9.776629,1.418358,0.077495,-0.004484,0.015914,-0.001383,1.039551,0.490234,0.047607,-0.365125,0.542718,0.448339,0.609207
20048,,9.741265,1.431719,0.109750,0.001255,0.010188,-0.000046,1.048828,0.488281,0.047607,-0.365146,0.542721,0.448318,0.609208
20049,,9.754040,1.470133,0.147207,0.002481,0.007876,0.000459,1.041992,0.490234,0.041260,-0.365149,0.542742,0.448278,0.609217
20050,,9.753189,1.419684,0.168786,-0.001067,0.009599,-0.001311,1.048828,0.488281,0.047607,-0.365158,0.542748,0.448254,0.609223
20051,,9.688170,1.451900,0.158813,-0.007225,0.008661,-0.003284,1.044189,0.488037,0.041260,-0.365136,0.542769,0.448205,0.609254
20052,,9.768284,1.436231,0.181272,-0.009806,0.008694,-0.005991,1.046631,0.490234,0.041260,-0.365105,0.542783,0.448169,0.609286
20053,,9.781097,1.425122,0.124961,-0.011968,0.005587,-0.010016,1.051270,0.483887,0.045654,-0.365055,0.542798,0.448143,0.609321
20054,,9.756120,1.449673,0.125641,-0.008741,0.008899,-0.002726,1.041992,0.492432,0.039063,-0.365038,0.542818,0.448101,0.609346
20055,,9.735134,1.428330,0.188797,0.001771,0.008942,0.002841,1.046387,0.492432,0.045410,-0.365073,0.542826,0.448075,0.609335
20056,,9.785728,1.430786,0.169193,0.007831,0.007986,0.000614,1.048828,0.488281,0.043457,-0.365109,0.542825,0.448076,0.609314
20057,,9.778543,1.447937,0.154469,0.013857,0.014138,0.002846,1.046631,0.485840,0.043457,-0.365169,0.542809,0.448060,0.609304
20058,,9.760866,1.454376,0.171212,0.014145,0.016210,0.001786,1.046387,0.492432,0.034668,-0.365244,0.542774,0.448062,0.609289
20059,,9.778534,1.447711,0.157151,0.011565,0.016243,-0.000922,1.046631,0.488037,0.045654,-0.365316,0.542730,0.448072,0.609278
20060,,9.738415,1.455816,0.147720,0.005924,0.014059,-0.000014,1.051025,0.492676,0.043213,-0.365359,0.542713,0.448057,0.609279
20061,,9.746415,1.489048,0.144230,0.004019,0.020133,-0.000644,1.044189,0.490234,0.043457,-0.365394,0.542689,0.448009,0.609314
20062,,9.746420,1.488840,0.146038,-0.000299,0.017533,0.004970,1.051270,0.488281,0.047607,-0.365443,0.542683,0.447956,0.609329
20063,,9.756948,1.499328,0.116346,0.003056,0.012019,-0.001660,1.044189,0.488037,0.045654,-0.365456,0.542682,0.447923,0.609346
20064,,9.766606,1.459462,0.107102,0.007954,0.012574,0.002317,1.046387,0.492432,0.041260,-0.365508,0.542671,0.447912,0.609333
20065,,9.754787,1.471254,0.051023,0.011110,0.016685,0.002904,1.044189,0.490234,0.041260,-0.365570,0.542649,0.447888,0.609334
20066,,9.748922,1.465779,0.125082,0.012241,0.012477,-0.000791,1.048828,0.488281,0.045654,-0.365623,0.542623,0.447898,0.609317
20067,,9.749788,1.516208,0.105433,0.010015,0.013784,0.002143,1.046631,0.488037,0.045654,-0.365678,0.542607,0.447881,0.609311
20068,,9.737063,1.477855,0.070423,0.012428,0.022454,-0.004099,1.051270,0.488281,0.047607,-0.365744,0.542543,0.447882,0.609327
20069,,9.760277,1.527001,0.077905,0.010973,0.021895,0.003162,1.044189,0.490234,0.047607,-0.365818,0.542508,0.447842,0.609344
20070,,9.731980,1.523070,0.126179,0.003632,0.016159,-0.003783,1.046387,0.492432,0.047607,-0.365847,0.542480,0.447827,0.609362
20071,,9.728491,1.495504,0.174692,-0.005975,0.018839,-0.003340,1.044434,0.485840,0.039063,-0.365827,0.542482,0.447744,0.609433
20072,,9.748687,1.466455,0.135112,-0.012873,0.016275,-0.000441,1.049072,0.486084,0.052002,-0.365822,0.542491,0.447670,0.609483
20073,,9.721248,1.512965,0.162732,-0.017678,0.017614,-0.000219,1.046387,0.492432,0.045410,-0.365815,0.542503,0.447575,0.609546
20074,,9.730888,1.473235,0.154174,-0.014225,0.013995,-0.002644,1.044189,0.492432,0.047607,-0.365794,0.542517,0.447506,0.609597
20075,,9.791166,1.436222,0.125132,-0.003525,0.014216,-0.002322,1.041992,0.492432,0.045410,-0.365773,0.542530,0.447438,0.609647
20076,,9.776870,1.470737,0.095488,0.002038,0.020809,0.003741,1.044189,0.490234,0.043457,-0.365831,0.542508,0.447390,0.609668
20077,,9.715624,1.457355,0.148434,0.009494,0.015024,-0.000728,1.044189,0.490234,0.043457,-0.365866,0.542489,0.447370,0.609679
20078,,9.786061,1.480845,0.182002,0.018054,0.018446,0.006731,1.046387,0.492432,0.043213,-0.365971,0.542451,0.447366,0.609652
20079,,9.778970,1.497654,0.167979,0.006840,0.019468,0.003521,1.048828,0.492676,0.047607,-0.366025,0.542432,0.447322,0.609669
20080,,9.760345,1.453357,0.206024,0.004609,0.020775,0.006453,1.046387,0.492432,0.041260,-0.366098,0.542411,0.447274,0.609679
20081,,9.763858,1.480884,0.161265,-0.002056,0.021079,0.001581,1.046631,0.490234,0.049805,-0.366115,0.542406,0.447194,0.609732
20082,,9.750614,1.492845,0.220456,-0.006948,0.020523,-0.002403,1.046387,0.492432,0.051758,-0.366129,0.542387,0.447135,0.609783
20083,,9.777979,1.446611,0.196811,-0.011329,0.018724,-0.003503,1.046631,0.485840,0.045654,-0.366084,0.542405,0.447027,0.609874
20084,,9.729754,1.422045,0.193074,-0.006458,0.022769,-0.008723,1.044189,0.490234,0.049805,-0.366086,0.542364,0.446983,0.609941
20085,,9.790006,1.385474,0.164929,-0.000052,0.023084,-0.005289,1.046631,0.490234,0.045410,-0.366107,0.542325,0.446933,0.610000
20086,,9.752483,1.371279,0.130463,0.012112,0.030169,-0.001046,1.044189,0.492432,0.047607,-0.366199,0.542244,0.446911,0.610033
20087,,9.752433,1.371387,0.133020,0.018142,0.026518,-0.000752,1.044189,0.492432,0.043213,-0.366277,0.542179,0.446891,0.610059
20088,,9.707137,1.424530,0.176419,0.017423,0.027584,0.001626,1.039795,0.488037,0.052002,-0.366386,0.542103,0.446883,0.610067
20089,,9.704476,1.447050,0.204802,0.009211,0.025434,-0.000198,1.044189,0.490234,0.041260,-0.366442,0.542055,0.446839,0.610108
20090,,9.704384,1.447336,0.207133,0.002006,0.024288,-0.005460,1.051025,0.490479,0.045410,-0.366480,0.542001,0.446808,0.610155
20091,,9.730055,1.474678,0.189027,-0.003681,0.022902,-0.011275,1.046387,0.494629,0.047607,-0.366477,0.541952,0.446774,0.610226
20092,,9.714691,1.459927,0.180683,-0.003938,0.023522,-0.012716,1.046631,0.488037,0.047607,-0.366475,0.541895,0.446747,0.610297
20093,,9.721521,1.444090,0.198700,-0.001959,0.022836,-0.017085,1.041992,0.485840,0.045654,-0.366440,0.541842,0.446716,0.610388
20094,,9.728360,1.428188,0.216544,-0.000941,0.020351,-0.011315,1.051270,0.488281,0.041260,-0.366443,0.541793,0.446700,0.610442
20095,,9.763760,1.416056,0.187395,0.002916,0.010907,-0.012549,1.044189,0.490234,0.047607,-0.366450,0.541751,0.446729,0.610454
20096,,9.817972,1.447482,0.121865,0.022989,0.018075,-0.005401,1.041992,0.488037,0.052002,-0.366531,0.541678,0.446774,0.610437
20097,,9.781330,1.410749,0.174249,0.031731,0.009189,-0.002640,1.046387,0.492432,0.047607,-0.366610,0.541631,0.446836,0.610386
20098,,9.754465,1.434915,0.288951,0.029782,0.012564,-0.000772,1.048828,0.488281,0.047607,-0.366711,0.541573,0.446899,0.610330
20099,,9.787352,1.444318,0.285186,0.017567,0.012579,-0.000571,1.048828,0.492676,0.043213,-0.366765,0.541547,0.446908,0.610314
20100,,9.762390,1.468426,0.286133,0.015942,0.020714,-0.002266,1.046631,0.485840,0.052002,-0.366842,0.541486,0.446918,0.610315
20101,,9.762306,1.468582,0.288200,0.009188,0.025428,-0.000193,1.044189,0.490234,0.045410,-0.366909,0.541434,0.446880,0.610348
20102,,9.748061,1.503278,0.259099,0.008678,0.026666,-0.003077,1.044189,0.488037,0.052002,-0.366978,0.541366,0.446860,0.610382
20103,,9.765802,1.496710,0.246399,0.014643,0.030123,0.001686,1.046631,0.488037,0.049805,-0.367073,0.541294,0.446824,0.610415
20104,,9.776523,1.507177,0.217815,0.014785,0.024915,0.001432,1.044189,0.492432,0.049805,-0.367169,0.541230,0.446812,0.610423
20105,,9.743555,1.497801,0.224484,0.010122,0.021046,0.001381,1.044189,0.490234,0.053955,-0.367221,0.541200,0.446772,0.610448
20106,,9.735470,1.464598,0.231338,0.006723,0.017558,-0.000662,1.041992,0.490234,0.049805,-0.367271,0.541169,0.446755,0.610457
