// Start Time: Unknown
// Update Rate: 100.0Hz
// Filter Profile: human (46.1)
// Option Flags: AHS Disabled ICC Disabled 
// Firmware Version: 4.3.4
PacketCounter,SampleTimeFine,Acc_X,Acc_Y,Acc_Z,Gyr_X,Gyr_Y,Gyr_Z,Mag_X,Mag_Y,Mag_Z,Quat_q0,Quat_q1,Quat_q2,Quat_q3
19741,,4.239463,0.925446,8.946558,0.002797,0.011412,-0.024919,0.692383,0.359863,1.170166,-0.780989,0.092751,0.202562,0.583456
19742,,4.230298,0.858754,9.007043,0.009139,0.008733,-0.026370,0.689941,0.362061,1.170166,-0.780980,0.092704,0.202585,0.583468
19743,,4.220574,0.937150,9.013713,0.008749,0.008485,-0.027836,0.692139,0.364502,1.174316,-0.780967,0.092656,0.202610,0.583485
19744,,4.229728,0.881507,8.969863,0.007051,0.009935,-0.027549,0.692383,0.357666,1.178955,-0.780955,0.092612,0.202623,0.583504
19745,,4.228580,0.883455,8.970213,0.009996,0.010159,-0.028424,0.687744,0.362061,1.174561,-0.780941,0.092556,0.202642,0.583525
19746,,4.200272,0.904952,8.979305,0.006825,0.011495,-0.027700,0.687988,0.357422,1.177002,-0.780929,0.092508,0.202648,0.583545
19747,,4.237911,0.894753,8.991012,0.008299,0.011607,-0.028138,0.685547,0.366455,1.169922,-0.780914,0.092454,0.202654,0.583572
19748,,4.229805,0.919689,8.986842,0.008136,0.009794,-0.029454,0.687988,0.359863,1.176758,-0.780897,0.092404,0.202671,0.583597
19749,,4.203049,0.960018,8.958090,0.007054,0.009927,-0.027552,0.687988,0.357422,1.177002,-0.780879,0.092359,0.202681,0.583625
19750,,4.188635,0.935460,8.976204,0.009145,0.008724,-0.026374,0.690186,0.357666,1.176758,-0.780870,0.092312,0.202704,0.583637
19751,,4.222924,0.913710,8.934659,0.006600,0.013051,-0.027854,0.685547,0.362061,1.174561,-0.780859,0.092262,0.202698,0.583660
19752,,4.213164,0.919540,8.968358,0.007218,0.011735,-0.026238,0.692139,0.364502,1.174316,-0.780853,0.092214,0.202704,0.583675
19753,,4.213828,0.867853,8.957938,0.006212,0.012800,-0.029320,0.687744,0.362061,1.176758,-0.780834,0.092162,0.202702,0.583708
19754,,4.220832,0.911832,9.027024,0.008142,0.009786,-0.029457,0.687988,0.362061,1.178711,-0.780817,0.092113,0.202719,0.583734
19755,,4.216374,0.902121,8.974100,0.007287,0.008356,-0.027404,0.683350,0.362061,1.170166,-0.780799,0.092073,0.202734,0.583759
19756,,4.182501,0.965237,8.940814,0.006373,0.014607,-0.028008,0.689941,0.362061,1.172363,-0.780790,0.092017,0.202727,0.583782
19757,,4.218796,0.936262,8.990306,0.009609,0.005591,-0.026075,0.685547,0.362061,1.176758,-0.780776,0.091977,0.202761,0.583795
19758,,4.231130,0.964400,8.972766,0.004893,0.010184,-0.023752,0.683350,0.364258,1.174316,-0.780774,0.091945,0.202765,0.583802
19759,,4.216652,0.939427,8.990981,0.003887,0.011247,-0.026835,0.685791,0.359863,1.174561,-0.780757,0.091909,0.202757,0.583833
19760,,4.210627,0.910480,8.975954,0.005589,0.009798,-0.027121,0.689941,0.362061,1.172363,-0.780745,0.091872,0.202766,0.583852
19761,,4.222836,0.938485,8.958485,0.004735,0.008368,-0.025068,0.690186,0.355469,1.172607,-0.780736,0.091845,0.202774,0.583865
19762,,4.220374,0.921014,8.996607,0.003263,0.008252,-0.024632,0.689941,0.362061,1.174561,-0.780729,0.091823,0.202781,0.583876
19763,,4.193620,0.960748,8.967782,0.004118,0.009679,-0.026686,0.685547,0.364258,1.167969,-0.780721,0.091795,0.202784,0.583890
19764,,4.206457,0.916085,8.977339,0.000865,0.010081,-0.020980,0.692139,0.362061,1.176758,-0.780725,0.091781,0.202775,0.583890
19765,,4.217172,0.924957,8.997704,0.006211,0.008481,-0.025506,0.687744,0.366455,1.172119,-0.780716,0.091746,0.202790,0.583903
19766,,4.216119,0.926345,8.998055,0.001950,0.009945,-0.022883,0.685547,0.362061,1.174561,-0.780715,0.091727,0.202785,0.583908
19767,,4.203192,0.919907,8.978477,0.001332,0.011256,-0.024501,0.687500,0.368896,1.169922,-0.780706,0.091704,0.202772,0.583928
19768,,4.222243,0.924562,8.965699,0.002339,0.010193,-0.021418,0.687744,0.362061,1.172363,-0.780709,0.091684,0.202767,0.583928
19769,,4.205726,0.952691,8.994702,0.002182,0.008380,-0.022733,0.685547,0.362061,1.172363,-0.780704,0.091667,0.202770,0.583937
19770,,4.208513,0.919197,8.946392,0.000322,0.008012,-0.023763,0.689941,0.364502,1.172119,-0.780698,0.091658,0.202769,0.583947
19771,,4.199085,0.924167,8.979961,0.000012,0.008646,-0.018930,0.685547,0.364258,1.170166,-0.780705,0.091654,0.202761,0.583941
19772,,4.209790,0.932821,9.000349,0.003038,0.009806,-0.024787,0.690186,0.359863,1.174561,-0.780699,0.091629,0.202761,0.583954
19773,,4.189942,0.949224,8.976141,-0.000993,0.009705,-0.022014,0.685547,0.364258,1.174316,-0.780698,0.091623,0.202747,0.583960
19774,,4.248152,0.941784,8.974731,-0.002622,0.007774,-0.022894,0.687744,0.364258,1.176514,-0.780693,0.091628,0.202738,0.583970
19775,,4.172407,0.977728,9.005538,-0.000219,0.010205,-0.019083,0.687988,0.359863,1.172363,-0.780698,0.091620,0.202721,0.583970
19776,,4.241442,0.912842,8.960096,-0.000760,0.008140,-0.021864,0.685791,0.359619,1.176758,-0.780697,0.091617,0.202715,0.583974
19777,,4.176484,0.891260,8.946872,-0.002697,0.011146,-0.021732,0.687744,0.366699,1.169922,-0.780698,0.091615,0.202688,0.583982
19778,,4.216646,0.964257,8.985005,-0.000992,0.009701,-0.022016,0.685547,0.362061,1.170166,-0.780698,0.091609,0.202675,0.583988
19779,,4.170448,0.927249,8.996392,-0.003551,0.009716,-0.019679,0.683350,0.361816,1.174561,-0.780701,0.091614,0.202654,0.583990
19780,,4.202951,0.957766,8.965793,-0.004559,0.006473,-0.018941,0.687988,0.357422,1.177002,-0.780705,0.091634,0.202643,0.583985
19781,,4.216359,0.912299,8.975269,-0.003553,0.005414,-0.015857,0.685547,0.366455,1.174316,-0.780716,0.091658,0.202631,0.583971
19782,,4.183722,0.901525,8.968717,-0.002699,0.006842,-0.017910,0.685791,0.359863,1.174561,-0.780724,0.091671,0.202623,0.583961
19783,,4.227969,0.939817,8.958120,-0.001458,0.008522,-0.018497,0.687744,0.364258,1.167969,-0.780729,0.091673,0.202609,0.583959
19784,,4.193776,0.910380,8.989388,-0.000992,0.005398,-0.018194,0.689941,0.362061,1.176758,-0.780735,0.091683,0.202611,0.583948
19785,,4.194668,0.929961,8.951780,-0.001144,0.003584,-0.019509,0.685547,0.364258,1.167969,-0.780736,0.091698,0.202621,0.583941
19786,,4.205787,0.938296,8.972004,-0.001377,0.005145,-0.019661,0.683350,0.364258,1.176514,-0.780738,0.091709,0.202624,0.583936
19787,,4.205073,0.938903,8.972275,-0.002698,0.006839,-0.017912,0.685547,0.364258,1.174316,-0.780741,0.091720,0.202613,0.583934
19788,,4.223131,0.924143,8.997179,-0.002464,0.005277,-0.017760,0.685547,0.364258,1.174316,-0.780748,0.091737,0.202612,0.583922
19789,,4.230977,0.920675,8.964241,-0.003469,0.006334,-0.020845,0.683350,0.364258,1.170166,-0.780741,0.091750,0.202602,0.583933
19790,,4.189686,0.913910,8.990936,-0.004790,0.008027,-0.019096,0.685791,0.359863,1.174561,-0.780746,0.091767,0.202583,0.583930
19791,,4.209066,0.918123,8.978098,0.000249,0.007076,-0.018782,0.689941,0.364258,1.178711,-0.780750,0.091766,0.202580,0.583926
19792,,4.188041,0.915158,8.991576,-0.002697,0.006836,-0.017913,0.683350,0.361816,1.174561,-0.780758,0.091779,0.202572,0.583916
19793,,4.188795,0.934582,8.954048,-0.002848,0.005022,-0.019228,0.683350,0.361816,1.174561,-0.780756,0.091797,0.202567,0.583917
19794,,4.208394,0.938755,8.941117,-0.002462,0.005273,-0.017762,0.685791,0.359619,1.176758,-0.780764,0.091813,0.202565,0.583906
19795,,4.206296,0.920370,8.979166,-0.002077,0.005525,-0.016295,0.683350,0.362061,1.170166,-0.780771,0.091830,0.202558,0.583895
19796,,4.218715,0.947356,8.961688,-0.004554,0.006461,-0.018946,0.692383,0.357666,1.172607,-0.780775,0.091850,0.202546,0.583891
19797,,4.225071,0.924938,8.966588,-0.003466,0.006329,-0.020848,0.687988,0.359863,1.170166,-0.780775,0.091865,0.202538,0.583891
19798,,4.199520,0.891259,8.964618,-0.001926,0.007337,-0.014980,0.683594,0.359619,1.174561,-0.780793,0.091876,0.202529,0.583869
19799,,4.196093,0.945125,8.975826,-0.005173,0.007768,-0.020565,0.683350,0.364258,1.172363,-0.780792,0.091894,0.202508,0.583875
19800,,4.190730,0.915036,8.960717,-0.002695,0.006832,-0.017915,0.683350,0.364258,1.178711,-0.780800,0.091907,0.202499,0.583864
19801,,4.198618,0.911506,8.927790,-0.004317,0.004897,-0.018796,0.689941,0.364502,1.172119,-0.780795,0.091930,0.202489,0.583872
19802,,4.173776,0.942773,8.989821,-0.004082,0.003335,-0.018645,0.681396,0.359619,1.174561,-0.780797,0.091958,0.202491,0.583864
19803,,4.212261,0.931448,9.001520,-0.006879,0.004906,-0.016461,0.685791,0.359863,1.174561,-0.780802,0.091993,0.202475,0.583858
19804,,4.198845,0.905033,9.019404,-0.003694,-0.000712,-0.013355,0.687988,0.357666,1.172607,-0.780815,0.092037,0.202491,0.583827
19805,,4.208613,0.920208,8.948506,-0.005170,0.003466,-0.016744,0.690186,0.357666,1.168213,-0.780822,0.092072,0.202485,0.583815
19806,,4.238653,0.912968,8.993338,-0.003845,0.001773,-0.018494,0.685547,0.362061,1.174561,-0.780823,0.092103,0.202493,0.583806
19807,,4.231245,0.936314,8.988825,-0.003993,-0.000041,-0.019810,0.689941,0.366699,1.174316,-0.780819,0.092140,0.202508,0.583801
19808,,4.212110,0.952068,8.964295,-0.002608,0.003455,-0.019080,0.685791,0.357422,1.174805,-0.780820,0.092161,0.202513,0.583794
19809,,4.230360,0.937241,8.989145,-0.005406,0.005024,-0.016896,0.692383,0.359863,1.174561,-0.780825,0.092190,0.202502,0.583786
19810,,4.231105,0.956477,8.951647,-0.004553,0.006453,-0.018949,0.687988,0.357666,1.174805,-0.780829,0.092211,0.202490,0.583782
19811,,4.212756,0.899731,8.954265,-0.004789,0.008014,-0.019100,0.687744,0.364258,1.172119,-0.780836,0.092228,0.202470,0.583777
19812,,4.216381,0.930631,8.970089,-0.003785,0.006958,-0.016015,0.683350,0.364258,1.176514,-0.780849,0.092247,0.202457,0.583760
19813,,4.202551,0.904460,8.988141,-0.002695,0.006827,-0.017916,0.679199,0.361816,1.174561,-0.780850,0.092258,0.202446,0.583761
19814,,4.187567,0.950594,8.979229,-0.005167,0.003460,-0.016746,0.690186,0.357666,1.176758,-0.780857,0.092292,0.202443,0.583747
19815,,4.195778,0.946895,8.946187,-0.004930,0.001899,-0.016595,0.690186,0.357666,1.170410,-0.780859,0.092330,0.202442,0.583740
19816,,4.237268,0.882095,8.946914,-0.007876,0.001653,-0.015728,0.685547,0.364258,1.174316,-0.780866,0.092380,0.202437,0.583724
19817,,4.221082,0.909087,8.975700,-0.003694,0.003582,-0.017181,0.683594,0.361816,1.176758,-0.780870,0.092407,0.202437,0.583714
19818,,4.227728,0.886687,8.980489,-0.002841,0.005012,-0.019233,0.685791,0.359863,1.172363,-0.780873,0.092424,0.202436,0.583708
19819,,4.199743,0.906285,8.989270,-0.003310,0.003834,-0.015713,0.687988,0.359863,1.172363,-0.780878,0.092450,0.202432,0.583698
19820,,4.238235,0.895477,9.000957,-0.001044,0.004499,-0.024504,0.687988,0.355225,1.172607,-0.780866,0.092456,0.202441,0.583711
19821,,4.211641,0.934469,8.971916,-0.000039,0.003444,-0.021418,0.683594,0.359619,1.172363,-0.780862,0.092466,0.202453,0.583710
19822,,4.198176,0.908814,8.989747,0.002056,0.002260,-0.020233,0.690186,0.357666,1.174805,-0.780861,0.092472,0.202477,0.583702
19823,,4.229430,0.921125,8.996848,-0.001988,0.006439,-0.021287,0.687744,0.362061,1.170166,-0.780858,0.092480,0.202471,0.583707
19824,,4.193850,0.898800,8.936956,-0.001988,0.006438,-0.021287,0.687744,0.362061,1.176758,-0.780856,0.092488,0.202468,0.583709
19825,,4.217671,0.933891,8.939588,-0.000131,0.006815,-0.020253,0.685791,0.359863,1.172363,-0.780855,0.092488,0.202467,0.583711
19826,,4.215405,0.915793,8.977686,-0.000752,0.008121,-0.021873,0.690186,0.359863,1.174561,-0.780854,0.092485,0.202461,0.583715
19827,,4.194238,0.912949,8.991166,0.000721,0.008245,-0.022306,0.683594,0.359619,1.172363,-0.780850,0.092476,0.202457,0.583722
19828,,4.233620,0.921416,8.965311,-0.001230,0.011240,-0.022176,0.681396,0.361816,1.176758,-0.780851,0.092466,0.202437,0.583730
19829,,4.210848,0.899521,9.016672,-0.000990,0.009679,-0.022025,0.690186,0.357666,1.174805,-0.780843,0.092459,0.202419,0.583748
19830,,4.188072,0.903984,8.939143,0.001105,0.008497,-0.020839,0.685547,0.364258,1.174316,-0.780847,0.092449,0.202416,0.583746
19831,,4.230537,0.924022,8.966498,-0.002605,0.007738,-0.022909,0.687988,0.357666,1.170410,-0.780838,0.092454,0.202405,0.583761
19832,,4.189079,0.917205,8.993138,-0.000607,0.009931,-0.020558,0.677002,0.359619,1.172607,-0.780843,0.092447,0.202392,0.583760
19833,,4.224162,0.895070,8.951821,-0.000989,0.009676,-0.022026,0.687988,0.359863,1.174561,-0.780838,0.092441,0.202374,0.583774
19834,,4.202929,0.892189,8.965322,0.000725,0.008240,-0.022309,0.687988,0.359863,1.176758,-0.780836,0.092432,0.202372,0.583778
19835,,4.194782,0.916035,8.961048,0.001347,0.006934,-0.020690,0.687988,0.359863,1.172363,-0.780836,0.092426,0.202373,0.583778
19836,,4.193971,0.917024,8.961326,0.001347,0.006934,-0.020690,0.689941,0.364502,1.172119,-0.780838,0.092420,0.202378,0.583775
19837,,4.206070,0.944369,8.943953,-0.004786,0.007989,-0.019110,0.687988,0.359863,1.170166,-0.780841,0.092436,0.202360,0.583775
19838,,4.211123,0.903193,8.986644,-0.000507,0.006552,-0.021726,0.686035,0.353027,1.172852,-0.780839,0.092437,0.202361,0.583777
19839,,4.237865,0.885045,8.978395,-0.000506,0.006552,-0.021726,0.687988,0.359863,1.170166,-0.780838,0.092440,0.202359,0.583778
19840,,4.209540,0.904993,8.987204,0.001349,0.006932,-0.020691,0.683594,0.357422,1.170410,-0.780840,0.092434,0.202363,0.583775
19841,,4.208743,0.905923,8.987484,-0.000505,0.006550,-0.021727,0.681396,0.359619,1.172607,-0.780837,0.092435,0.202362,0.583780
19842,,4.208094,0.906794,8.987700,0.000358,0.003685,-0.019956,0.685547,0.364258,1.170166,-0.780838,0.092443,0.202376,0.583773
19843,,4.231987,0.942005,8.990268,-0.001737,0.004862,-0.021143,0.685547,0.364258,1.172363,-0.780828,0.092453,0.202376,0.583784
19844,,4.202565,0.878044,8.972637,0.004296,0.007184,-0.021557,0.687988,0.359863,1.176758,-0.780829,0.092434,0.202389,0.583781
19845,,4.233654,0.890874,8.979805,0.002926,0.003682,-0.022290,0.683594,0.359619,1.174561,-0.780819,0.092429,0.202409,0.583788
19846,,4.227050,0.933700,8.937645,-0.000504,0.006546,-0.021728,0.685547,0.364258,1.167969,-0.780817,0.092430,0.202410,0.583791
19847,,4.204641,0.911821,8.988808,0.001350,0.006928,-0.020693,0.690186,0.357666,1.174805,-0.780814,0.092423,0.202412,0.583796
19848,,4.223998,0.916683,8.976013,0.000728,0.008231,-0.022313,0.687744,0.364258,1.174316,-0.780812,0.092414,0.202410,0.583800
19849,,4.243495,0.921569,8.963153,0.001835,0.003808,-0.020390,0.690186,0.355469,1.170410,-0.780810,0.092415,0.202426,0.583797
19850,,4.198174,0.884251,8.974083,0.001731,0.007181,-0.019225,0.687988,0.359863,1.176758,-0.780817,0.092408,0.202430,0.583787
19851,,4.194275,0.938483,8.985236,-0.001353,0.005110,-0.019678,0.683594,0.357422,1.174805,-0.780821,0.092421,0.202431,0.583780
19852,,4.208331,0.893629,8.994642,-0.000260,0.004982,-0.021579,0.690186,0.357666,1.166016,-0.780817,0.092426,0.202439,0.583781
19853,,4.221904,0.940385,8.939377,0.004541,0.005621,-0.021408,0.685547,0.362061,1.172363,-0.780818,0.092411,0.202456,0.583776
19854,,4.219785,0.922496,8.977399,0.000258,0.007051,-0.018794,0.681396,0.361816,1.174561,-0.780826,0.092411,0.202456,0.583766
19855,,4.218922,0.923346,8.977717,-0.001124,0.007841,-0.023352,0.685547,0.362061,1.170166,-0.780812,0.092408,0.202446,0.583788
19856,,4.238305,0.928033,8.964941,-0.001595,0.006665,-0.019831,0.687744,0.362061,1.170166,-0.780815,0.092415,0.202443,0.583784
19857,,4.185547,0.913239,8.971332,-0.000121,0.006793,-0.020263,0.689941,0.364258,1.174316,-0.780815,0.092414,0.202443,0.583785
19858,,4.204987,0.917982,8.958526,-0.000121,0.006792,-0.020264,0.685791,0.359863,1.170410,-0.780817,0.092415,0.202443,0.583782
19859,,4.231894,0.899778,8.950294,-0.002824,0.004975,-0.019248,0.685547,0.362061,1.172363,-0.780816,0.092432,0.202442,0.583780
19860,,4.194820,0.923310,8.992223,0.001354,0.006921,-0.020696,0.696533,0.362305,1.176514,-0.780818,0.092426,0.202446,0.583777
19861,,4.210228,0.897493,8.963894,-0.001349,0.005103,-0.019681,0.685547,0.362061,1.174561,-0.780819,0.092436,0.202450,0.583773
19862,,4.221023,0.905906,8.984246,-0.003446,0.006275,-0.020870,0.687744,0.362061,1.174561,-0.780818,0.092451,0.202443,0.583775
19863,,4.212767,0.929474,8.979974,0.001489,0.008735,-0.019380,0.683594,0.357422,1.174805,-0.780821,0.092439,0.202437,0.583775
19864,,4.200413,0.922517,8.960206,-0.001592,0.006659,-0.019834,0.685547,0.362061,1.172363,-0.780824,0.092446,0.202433,0.583771
19865,,4.218519,0.908184,8.985193,-0.001592,0.006659,-0.019834,0.685791,0.359863,1.172363,-0.780822,0.092453,0.202425,0.583775
19866,,4.210179,0.931740,8.980953,-0.000607,0.009905,-0.020569,0.687988,0.359863,1.183350,-0.780827,0.092446,0.202412,0.583774
19867,,4.229549,0.936532,8.968192,-0.000251,0.004972,-0.021583,0.685791,0.359619,1.176758,-0.780820,0.092452,0.202415,0.583782
19868,,4.208590,0.933350,8.981531,-0.000834,0.007171,-0.016897,0.687988,0.359863,1.178955,-0.780832,0.092457,0.202410,0.583766
19869,,4.231626,0.884603,8.957757,-0.000856,0.001981,-0.019380,0.685791,0.359863,1.174561,-0.780828,0.092476,0.202421,0.583765
19870,,4.216196,0.930978,8.948751,0.000261,0.007043,-0.018798,0.685791,0.355225,1.174805,-0.780835,0.092476,0.202421,0.583755
19871,,4.186550,0.931561,8.995226,-0.002952,0.003150,-0.020570,0.687744,0.366455,1.172119,-0.780830,0.092499,0.202423,0.583758
19872,,4.222511,0.909468,8.953746,-0.002195,0.003664,-0.017631,0.690186,0.359863,1.170166,-0.780836,0.092519,0.202428,0.583745
19873,,4.233485,0.917826,8.974016,-0.002573,0.003407,-0.019101,0.683594,0.361816,1.176758,-0.780834,0.092539,0.202435,0.583741
19874,,4.221556,0.910531,8.954088,-0.004046,0.003275,-0.018670,0.687988,0.357422,1.177002,-0.780836,0.092567,0.202437,0.583734
19875,,4.233645,0.937836,8.936691,-0.001458,0.008468,-0.018519,0.689941,0.362061,1.172363,-0.780840,0.092570,0.202421,0.583734
19876,,4.199990,0.907696,8.967669,-0.001948,0.002104,-0.017481,0.690186,0.357666,1.178955,-0.780845,0.092594,0.202433,0.583719
19877,,4.211030,0.916079,8.987904,-0.002949,0.003147,-0.020571,0.692139,0.362061,1.174561,-0.780841,0.092616,0.202437,0.583720
19878,,4.179988,0.923718,8.943375,-0.004028,0.008461,-0.016187,0.687988,0.359863,1.168213,-0.780855,0.092631,0.202418,0.583705
19879,,4.228550,0.902095,9.013154,-0.001475,0.003278,-0.021003,0.690186,0.359863,1.170166,-0.780851,0.092646,0.202430,0.583704
19880,,4.209087,0.917729,8.988645,-0.002817,0.004961,-0.019255,0.687744,0.364258,1.174316,-0.780853,0.092663,0.202429,0.583699
19881,,4.228768,0.922295,8.975782,-0.002570,0.003402,-0.019103,0.685791,0.359619,1.176758,-0.780852,0.092684,0.202435,0.583696
19882,,4.207978,0.918845,8.989051,-0.002439,0.005217,-0.017786,0.689941,0.362061,1.178711,-0.780859,0.092700,0.202433,0.583684
19883,,4.227570,0.923458,8.976226,-0.000965,0.005349,-0.018217,0.689941,0.362061,1.167969,-0.780860,0.092710,0.202432,0.583681
19884,,4.176360,0.927232,8.944707,-0.003193,0.004700,-0.020725,0.685791,0.359863,1.172363,-0.780858,0.092728,0.202432,0.583681
19885,,4.222307,0.894055,8.961216,-0.002685,0.006773,-0.017938,0.687744,0.362061,1.174561,-0.780864,0.092740,0.202424,0.583674
19886,,4.214203,0.917213,8.956869,-0.005138,0.003392,-0.016773,0.685791,0.355225,1.177002,-0.780871,0.092774,0.202421,0.583661
19887,,4.232784,0.902744,8.981685,-0.000222,0.000675,-0.017763,0.685791,0.359863,1.170410,-0.780871,0.092796,0.202439,0.583651
19888,,4.225004,0.926181,8.977154,-0.002320,0.001841,-0.018953,0.687988,0.359863,1.170166,-0.780871,0.092820,0.202452,0.583642
19889,,4.213311,0.918856,8.957120,-0.002792,0.000666,-0.015431,0.692139,0.362061,1.174561,-0.780878,0.092853,0.202465,0.583623
19890,,4.220558,0.896505,8.961795,-0.003793,0.001707,-0.018523,0.685791,0.357422,1.170410,-0.780878,0.092885,0.202474,0.583615
19891,,4.245803,0.950556,8.926539,-0.002543,-0.000892,-0.015280,0.687988,0.359863,1.170166,-0.780885,0.092922,0.202493,0.583593
19892,,4.207316,0.870595,8.979604,-0.002439,0.005213,-0.017787,0.687988,0.355225,1.172607,-0.780892,0.092939,0.202492,0.583582
19893,,4.262660,0.917639,8.989270,-0.000940,0.001057,-0.014393,0.683594,0.359619,1.178955,-0.780905,0.092966,0.202508,0.583554
19894,,4.199228,0.894533,8.975161,-0.000348,-0.001143,-0.019082,0.685791,0.359619,1.178955,-0.780903,0.092991,0.202538,0.583543
19895,,4.239414,0.903226,8.949118,-0.003664,0.003520,-0.017205,0.685547,0.362061,1.172363,-0.780901,0.093018,0.202531,0.583543
19896,,4.230259,0.907491,8.982396,-0.001693,0.000539,-0.017333,0.692139,0.362305,1.170166,-0.780905,0.093046,0.202550,0.583527
19897,,4.242748,0.934913,8.964784,-0.002069,0.000280,-0.018803,0.689941,0.364502,1.172119,-0.780900,0.093073,0.202569,0.583523
19898,,4.225912,0.878151,8.966973,-0.000468,0.002229,-0.017916,0.690186,0.357666,1.178955,-0.780904,0.093090,0.202586,0.583508
19899,,4.217969,0.901408,8.962522,-0.005514,0.003125,-0.018245,0.687988,0.359863,1.168213,-0.780902,0.093124,0.202582,0.583507
19900,,4.221502,0.932344,8.978163,-0.002789,0.000662,-0.015433,0.687988,0.359863,1.172363,-0.780911,0.093158,0.202596,0.583484
19901,,4.256697,0.891314,8.974309,-0.002539,-0.000896,-0.015282,0.690186,0.357666,1.176758,-0.780916,0.093194,0.202616,0.583465
19902,,4.219907,0.914184,9.015986,-0.003791,0.001700,-0.018525,0.689941,0.362061,1.174561,-0.780917,0.093226,0.202625,0.583456
19903,,4.205658,0.895314,8.942660,0.000159,0.000930,-0.016296,0.690186,0.357666,1.168213,-0.780922,0.093246,0.202644,0.583439
19904,,4.244546,0.885198,8.954380,-0.000467,0.002228,-0.017917,0.685791,0.357422,1.172607,-0.780926,0.093264,0.202660,0.583425
19905,,4.216419,0.904441,8.962945,-0.003790,0.001698,-0.018526,0.685791,0.359863,1.170410,-0.780926,0.093295,0.202667,0.583419
19906,,4.247714,0.916827,8.970116,-0.003790,0.001698,-0.018526,0.687988,0.357422,1.177002,-0.780926,0.093327,0.202676,0.583410
19907,,4.242374,0.867725,8.992418,-0.001314,0.000794,-0.015866,0.690186,0.359863,1.170166,-0.780930,0.093353,0.202689,0.583395
19908,,4.207906,0.928589,8.958657,-0.003287,0.003772,-0.015738,0.687744,0.362061,1.172363,-0.780941,0.093380,0.202690,0.583376
19909,,4.196104,0.921113,8.938695,-0.003037,0.002215,-0.015587,0.692383,0.357666,1.172607,-0.780947,0.093408,0.202697,0.583362
19910,,4.233848,0.891721,8.988156,-0.002536,-0.000900,-0.015284,0.692383,0.357666,1.170410,-0.780955,0.093446,0.202718,0.583338
19911,,4.234914,0.911086,8.950452,-0.005262,0.001560,-0.018096,0.687988,0.357422,1.177002,-0.780957,0.093484,0.202723,0.583327
19912,,4.234600,0.911353,8.950574,-0.004510,0.002078,-0.015156,0.690186,0.359863,1.172363,-0.780968,0.093521,0.202727,0.583306
19913,,4.222954,0.903715,8.930557,-0.003508,0.001039,-0.012065,0.687988,0.359863,1.174561,-0.780983,0.093559,0.202732,0.583277
19914,,4.229128,0.862195,8.972953,-0.004635,0.000261,-0.016475,0.687988,0.359863,1.176758,-0.780987,0.093600,0.202743,0.583261
19915,,4.241637,0.889522,8.955330,-0.001812,-0.001283,-0.018656,0.690186,0.355469,1.170410,-0.780979,0.093632,0.202764,0.583260
19916,,4.200939,0.881755,8.981500,-0.003288,0.003769,-0.015739,0.687744,0.362061,1.176758,-0.780990,0.093658,0.202765,0.583240
19917,,4.233630,0.913356,8.950828,0.000164,-0.004261,-0.018785,0.692139,0.362061,1.174561,-0.780981,0.093690,0.202805,0.583233
19918,,4.224933,0.917790,8.983856,-0.001185,-0.002582,-0.017035,0.687744,0.362061,1.167969,-0.780983,0.093726,0.202838,0.583213
19919,,4.241342,0.891780,8.955245,-0.004634,0.000258,-0.016476,0.690186,0.359863,1.172363,-0.780981,0.093765,0.202848,0.583206
19920,,4.252462,0.899981,8.975452,-0.003037,0.002211,-0.015588,0.687988,0.359863,1.174561,-0.780991,0.093795,0.202856,0.583185
19921,,4.240811,0.892678,8.955407,-0.000213,0.000668,-0.017769,0.690186,0.359863,1.172363,-0.780989,0.093815,0.202876,0.583178
19922,,4.229222,0.885544,8.935316,-0.000213,0.000667,-0.017769,0.690186,0.355469,1.174805,-0.780992,0.093836,0.202898,0.583162
19923,,4.251680,0.901934,8.975626,-0.001938,0.002086,-0.017490,0.690186,0.359863,1.172363,-0.780994,0.093860,0.202907,0.583153
19924,,4.248880,0.891021,8.922401,-0.000588,0.000407,-0.019240,0.694580,0.355469,1.172607,-0.780993,0.093882,0.202931,0.583143
19925,,4.219395,0.891272,8.968748,-0.000594,0.005596,-0.016753,0.692383,0.357666,1.170410,-0.781003,0.093891,0.202932,0.583127
19926,,4.231542,0.918818,8.951256,-0.002435,0.000008,-0.020281,0.690186,0.359863,1.174561,-0.780997,0.093921,0.202952,0.583123
19927,,4.241499,0.908252,9.009162,-0.000935,0.001048,-0.014399,0.687988,0.359863,1.172363,-0.781008,0.093946,0.202968,0.583100
19928,,4.218489,0.893027,8.969000,-0.001562,0.002344,-0.016020,0.692383,0.357666,1.170410,-0.781017,0.093970,0.202979,0.583079
19929,,4.254782,0.871313,8.927512,-0.001815,0.003900,-0.016172,0.687988,0.357666,1.172607,-0.781024,0.093989,0.202982,0.583066
19930,,4.249124,0.906306,8.976396,0.000757,0.003916,-0.018504,0.690186,0.359863,1.176758,-0.781029,0.093996,0.202995,0.583054
19931,,4.257476,0.903315,8.943397,-0.002189,0.003639,-0.017643,0.694580,0.355469,1.172607,-0.781028,0.094015,0.202996,0.583051
19932,,4.227855,0.903362,8.989814,-0.002442,0.005195,-0.017794,0.689941,0.364502,1.170166,-0.781035,0.094032,0.202995,0.583039
19933,,4.258907,0.916236,8.997057,0.002110,0.002237,-0.020255,0.692139,0.362305,1.170166,-0.781030,0.094036,0.203019,0.583037
19934,,4.243395,0.878472,8.961543,-0.004290,0.004794,-0.018835,0.687988,0.359863,1.174561,-0.781033,0.094060,0.203014,0.583031
19935,,4.255301,0.906035,8.944157,0.000130,0.005210,-0.020127,0.687988,0.357666,1.170410,-0.781027,0.094062,0.203020,0.583037
19936,,4.253489,0.887721,8.982127,-0.002816,0.004932,-0.019266,0.692383,0.359863,1.170166,-0.781029,0.094080,0.203019,0.583031
19937,,4.233833,0.903167,8.957657,-0.000968,0.005331,-0.018226,0.694336,0.362305,1.174561,-0.781032,0.094089,0.203020,0.583027
19938,,4.253406,0.907995,8.944859,-0.002441,0.005191,-0.017796,0.687744,0.362061,1.172363,-0.781038,0.094106,0.203019,0.583015
19939,,4.220202,0.877291,8.975692,-0.002658,0.002461,-0.014122,0.690186,0.359863,1.172363,-0.781045,0.094133,0.203024,0.583000
19940,,4.251168,0.890092,8.982991,0.001351,0.006904,-0.020710,0.694580,0.355469,1.168213,-0.781047,0.094127,0.203028,0.582997
19941,,4.227683,0.874830,8.943067,-0.007744,0.007622,-0.018279,0.687988,0.357666,1.174805,-0.781051,0.094156,0.203002,0.582996
19942,,4.250915,0.910088,8.945831,-0.000832,0.001956,-0.019396,0.696777,0.357666,1.178955,-0.781051,0.094174,0.203019,0.582988
19943,,4.229113,0.887539,8.996729,-0.000712,0.003772,-0.018076,0.690186,0.357666,1.168213,-0.781053,0.094188,0.203024,0.582981
19944,,4.226185,0.876502,8.943611,-0.003285,0.003753,-0.015745,0.690186,0.355469,1.177002,-0.781064,0.094214,0.203025,0.582962
19945,,4.197782,0.895423,8.952243,-0.002185,0.003632,-0.017646,0.690186,0.359863,1.172363,-0.781066,0.094235,0.203026,0.582954
19946,,4.275875,0.874810,8.975749,-0.003403,0.001935,-0.017065,0.689941,0.362061,1.172363,-0.781072,0.094265,0.203035,0.582939
19947,,4.236204,0.886080,8.964195,0.001862,0.003791,-0.020408,0.692383,0.353271,1.172852,-0.781063,0.094265,0.203050,0.582945
19948,,4.247071,0.894944,8.984447,0.001018,0.002355,-0.018356,0.694580,0.357910,1.168213,-0.781067,0.094275,0.203070,0.582931
19949,,4.244361,0.884101,8.931215,-0.001674,0.000518,-0.017345,0.692383,0.359863,1.174561,-0.781072,0.094304,0.203089,0.582913
19950,,4.246439,0.896242,8.984617,-0.002184,0.003629,-0.017648,0.689941,0.364502,1.172119,-0.781078,0.094324,0.203094,0.582900
19951,,4.245806,0.896854,8.984855,-0.001222,0.006881,-0.018380,0.692383,0.357666,1.170410,-0.781077,0.094328,0.203088,0.582904
19952,,4.250498,0.863261,8.936373,-0.000337,0.004030,-0.016607,0.690186,0.357666,1.172607,-0.781087,0.094341,0.203097,0.582885
19953,,4.241108,0.867524,8.969707,-0.002183,0.003627,-0.017648,0.687988,0.359863,1.172363,-0.781089,0.094361,0.203100,0.582878
19954,,4.221564,0.882921,8.945162,-0.000710,0.003768,-0.018079,0.692383,0.359863,1.172363,-0.781094,0.094375,0.203110,0.582865
19955,,4.271547,0.881220,8.977183,0.001608,0.005344,-0.020561,0.694336,0.362305,1.174561,-0.781088,0.094371,0.203118,0.582871
19956,,4.263075,0.904594,8.972875,-0.003796,0.006857,-0.016050,0.685791,0.355225,1.174805,-0.781101,0.094389,0.203105,0.582855
19957,,4.230724,0.893039,8.966092,0.001096,0.008454,-0.020864,0.690186,0.359863,1.172363,-0.781097,0.094379,0.203098,0.582865
19958,,4.257844,0.875396,8.957982,-0.002694,0.006735,-0.017952,0.694580,0.357666,1.172607,-0.781105,0.094392,0.203090,0.582855
19959,,4.245863,0.868083,8.938109,-0.001337,0.005059,-0.019702,0.696777,0.357910,1.172607,-0.781102,0.094401,0.203092,0.582856
19960,,4.248667,0.899487,8.953930,-0.000120,0.006756,-0.020284,0.692139,0.359863,1.168213,-0.781105,0.094402,0.203093,0.582853
19961,,4.255677,0.877595,8.958797,-0.001966,0.006351,-0.021326,0.696777,0.355713,1.168213,-0.781100,0.094409,0.203091,0.582858
19962,,4.250618,0.931613,8.970075,-0.001593,0.006612,-0.019855,0.692383,0.357666,1.174805,-0.781103,0.094416,0.203087,0.582854
19963,,4.234013,0.874796,8.972352,-0.000234,0.004937,-0.021605,0.692383,0.357666,1.170410,-0.781099,0.094421,0.203095,0.582856
19964,,4.244514,0.883618,8.992777,-0.000749,0.008046,-0.021908,0.692139,0.362305,1.172363,-0.781098,0.094419,0.203089,0.582860
19965,,4.224645,0.899466,8.968316,0.003815,0.005101,-0.024366,0.698975,0.360107,1.174561,-0.781083,0.094403,0.203109,0.582876
19966,,4.242925,0.885768,8.993315,-0.001850,0.008164,-0.020007,0.690186,0.357666,1.174805,-0.781087,0.094407,0.203099,0.582874
19967,,4.251218,0.883015,8.960381,0.002129,0.002229,-0.020262,0.689941,0.359863,1.166016,-0.781082,0.094411,0.203122,0.582871
19968,,4.241701,0.887599,8.993712,-0.000490,0.006488,-0.021758,0.694580,0.355469,1.172607,-0.781079,0.094412,0.203123,0.582874
19969,,4.258727,0.881298,8.927723,0.001098,0.008448,-0.020868,0.690186,0.359863,1.172363,-0.781080,0.094402,0.203120,0.582876
19970,,4.260102,0.893874,8.981369,0.000726,0.008185,-0.022340,0.696777,0.360107,1.174561,-0.781078,0.094393,0.203119,0.582881
19971,,4.279440,0.899249,8.968677,0.000985,0.006629,-0.022189,0.690186,0.357666,1.176758,-0.781070,0.094386,0.203123,0.582891
19972,,4.227966,0.902634,8.937135,0.000840,0.010001,-0.021020,0.687988,0.357666,1.174805,-0.781074,0.094373,0.203114,0.582891
19973,,4.225693,0.884537,8.975319,0.000581,0.011555,-0.021172,0.692139,0.359863,1.168213,-0.781072,0.094355,0.203092,0.582904
19974,,4.264038,0.875190,8.987412,0.001617,0.005335,-0.020566,0.692383,0.357666,1.174805,-0.781073,0.094352,0.203103,0.582899
19975,,4.212650,0.878562,8.955817,0.000098,0.009472,-0.023965,0.692383,0.359863,1.170166,-0.781064,0.094339,0.203094,0.582917
19976,,4.243024,0.891913,8.963383,0.000470,0.009734,-0.022494,0.692383,0.357666,1.176758,-0.781063,0.094327,0.203086,0.582923
19977,,4.241954,0.892820,8.963800,-0.000633,0.009853,-0.020593,0.692383,0.357666,1.168213,-0.781063,0.094319,0.203070,0.582930
19978,,4.240883,0.893726,8.964216,0.000471,0.009733,-0.022494,0.692383,0.359863,1.172363,-0.781062,0.094306,0.203062,0.582936
19979,,4.228657,0.886748,8.944432,0.000731,0.008178,-0.022343,0.692383,0.357666,1.170410,-0.781057,0.094296,0.203060,0.582945
19980,,4.238871,0.895720,8.964968,0.000842,0.009995,-0.021023,0.687988,0.355225,1.177002,-0.781061,0.094283,0.203051,0.582945
19981,,4.249147,0.904602,8.985484,0.000259,0.007004,-0.018819,0.692383,0.359863,1.174561,-0.781064,0.094282,0.203047,0.582942
19982,,4.256237,0.882808,8.990364,-0.000481,0.006476,-0.021764,0.694580,0.357666,1.176758,-0.781062,0.094283,0.203048,0.582945
19983,,4.245419,0.894820,8.932714,0.001623,0.005330,-0.020569,0.694580,0.357910,1.168213,-0.781059,0.094281,0.203057,0.582946
19984,,4.251398,0.854125,8.975324,0.001103,0.008438,-0.020873,0.687988,0.357666,1.174805,-0.781062,0.094271,0.203054,0.582945
19985,,4.242499,0.877745,8.971112,0.000842,0.009992,-0.021025,0.692383,0.359863,1.172363,-0.781062,0.094257,0.203043,0.582950
19986,,4.274069,0.910285,8.940907,0.002468,0.006764,-0.022623,0.692139,0.362305,1.172363,-0.781059,0.094245,0.203052,0.582953
19987,,4.243979,0.910543,8.987326,0.001104,0.008436,-0.020874,0.692383,0.357666,1.172607,-0.781055,0.094233,0.203049,0.582961
19988,,4.267934,0.862709,8.963692,0.000626,0.006352,-0.023667,0.694580,0.355469,1.174805,-0.781048,0.094229,0.203055,0.582970
19989,,4.251201,0.908937,8.954835,-0.001000,0.009578,-0.022071,0.687988,0.357666,1.168213,-0.781047,0.094223,0.203041,0.582977
19990,,4.248956,0.890785,8.993021,0.000582,0.011542,-0.021179,0.690186,0.357666,1.174805,-0.781052,0.094206,0.203025,0.582979
19991,,4.244593,0.861170,8.977871,0.002948,0.008844,-0.019831,0.689941,0.362061,1.170166,-0.781054,0.094188,0.203023,0.582979
19992,,4.227794,0.907475,8.969016,0.001106,0.008432,-0.020876,0.692383,0.355469,1.172607,-0.781057,0.094178,0.203020,0.582978
19993,,4.234782,0.885843,8.973961,0.000737,0.008167,-0.022349,0.690186,0.359863,1.168213,-0.781051,0.094168,0.203017,0.582989
19994,,4.222591,0.878976,8.954157,0.003423,0.010013,-0.023357,0.690186,0.357666,1.172607,-0.781049,0.094142,0.203017,0.582995
19995,,4.249712,0.862030,8.946165,0.002212,0.008312,-0.022778,0.690186,0.357666,1.168213,-0.781043,0.094125,0.203017,0.583007
19996,,4.263160,0.901873,8.982238,0.002212,0.008311,-0.022778,0.690186,0.357666,1.174805,-0.781040,0.094109,0.203020,0.583011
19997,,4.231884,0.909442,8.937659,-0.000997,0.009569,-0.022075,0.692383,0.357666,1.168213,-0.781037,0.094102,0.203005,0.583023
19998,,4.261163,0.903834,8.982988,0.000371,0.007897,-0.023824,0.692383,0.357666,1.174805,-0.781030,0.094094,0.203004,0.583033
19999,,4.260152,0.904829,8.983368,0.001214,0.010246,-0.019558,0.692627,0.353271,1.174805,-0.781037,0.094080,0.202993,0.583030
20000,,4.236763,0.889724,8.943432,0.000478,0.009714,-0.022504,0.690186,0.355469,1.168213,-0.781036,0.094067,0.202985,0.583036
20001,,4.234585,0.871731,8.981577,0.002320,0.010127,-0.021459,0.692383,0.357666,1.168213,-0.781041,0.094048,0.202977,0.583035
20002,,4.254712,0.896445,8.931333,0.003531,0.011827,-0.022040,0.696777,0.360107,1.178955,-0.781045,0.094017,0.202969,0.583037
20003,,4.233258,0.893137,8.944752,0.002058,0.011678,-0.021612,0.690186,0.357666,1.172607,-0.781048,0.093994,0.202957,0.583042
20004,,4.232015,0.894222,8.945231,0.002426,0.011943,-0.020140,0.692383,0.359863,1.176758,-0.781057,0.093969,0.202945,0.583038
20005,,4.249820,0.880759,8.970540,0.001427,0.012964,-0.023239,0.692383,0.357666,1.168213,-0.781054,0.093942,0.202924,0.583054
20006,,4.249493,0.900852,8.933374,-0.000677,0.014101,-0.024438,0.694580,0.357666,1.172607,-0.781051,0.093919,0.202896,0.583071
20007,,4.286204,0.872938,8.983586,0.004480,0.015078,-0.022774,0.687744,0.362061,1.172363,-0.781057,0.093875,0.202879,0.583076
20008,,4.222060,0.849278,8.969641,0.005851,0.013407,-0.024522,0.694580,0.355469,1.177002,-0.781057,0.093828,0.202873,0.583086
20009,,4.264041,0.890596,8.959924,0.006431,0.016394,-0.026728,0.689941,0.362061,1.176758,-0.781049,0.093768,0.202855,0.583112
20010,,4.234122,0.910316,8.968867,0.004957,0.016243,-0.026302,0.689941,0.362061,1.172363,-0.781046,0.093715,0.202837,0.583131
20011,,4.260791,0.893714,8.961160,0.004746,0.013521,-0.022623,0.689941,0.362061,1.170166,-0.781043,0.093672,0.202823,0.583147
20012,,4.238967,0.890597,8.974703,0.002853,0.017377,-0.027503,0.687988,0.355225,1.172607,-0.781036,0.093623,0.202795,0.583174
20013,,4.276550,0.882021,8.987299,0.003852,0.016357,-0.024404,0.690186,0.359863,1.170166,-0.781035,0.093575,0.202769,0.583192
20014,,4.204086,0.880921,8.968818,0.005538,0.019226,-0.028511,0.692383,0.359863,1.174561,-0.781028,0.093509,0.202741,0.583221
20015,,4.253689,0.899673,8.963937,0.005428,0.018324,-0.023511,0.692383,0.357666,1.174805,-0.781033,0.093450,0.202713,0.583234
20016,,4.240688,0.893148,8.944496,0.006272,0.019757,-0.025565,0.694336,0.364502,1.176514,-0.781036,0.093382,0.202684,0.583251
20017,,4.193309,0.938976,8.981953,0.006172,0.017936,-0.026886,0.692383,0.355469,1.172607,-0.781030,0.093318,0.202662,0.583277
20018,,4.211764,0.944993,8.969726,0.002016,0.015932,-0.025455,0.689941,0.362061,1.167969,-0.781028,0.093278,0.202635,0.583296
20019,,4.246472,0.905709,8.966750,0.004487,0.015064,-0.022781,0.690186,0.357666,1.172607,-0.781033,0.093234,0.202618,0.583302
20020,,4.205459,0.917009,8.955443,0.002861,0.017364,-0.027510,0.690186,0.357666,1.172607,-0.781026,0.093185,0.202590,0.583328
20021,,4.222959,0.903960,8.980912,0.004390,0.013243,-0.024102,0.685791,0.357422,1.170410,-0.781026,0.093145,0.202578,0.583339
20022,,4.182145,0.915335,8.969483,0.005234,0.014676,-0.026156,0.689941,0.362061,1.174561,-0.781022,0.093096,0.202566,0.583357
20023,,4.183659,0.947290,8.985580,-0.000397,0.012519,-0.024300,0.685791,0.359863,1.172363,-0.781015,0.093075,0.202543,0.583378
20024,,4.210746,0.930201,8.977827,-0.000609,0.009800,-0.020620,0.690186,0.359863,1.170166,-0.781019,0.093069,0.202530,0.583378
20025,,4.236296,0.901408,8.916651,-0.000439,0.006428,-0.021786,0.687988,0.359863,1.178955,-0.781013,0.093069,0.202530,0.583385
20026,,4.234262,0.883325,8.954741,0.000502,0.009682,-0.022520,0.690186,0.355469,1.170410,-0.781012,0.093056,0.202522,0.583391
20027,,4.203685,0.883331,9.001143,0.001710,0.011384,-0.023100,0.694580,0.355469,1.172607,-0.781011,0.093033,0.202508,0.583401
20028,,4.213068,0.899802,8.930649,0.000558,0.005411,-0.018685,0.690186,0.359863,1.174561,-0.781017,0.093037,0.202515,0.583390
20029,,4.206055,0.935058,8.979521,0.001785,0.006191,-0.025587,0.685791,0.359863,1.170410,-0.781007,0.093027,0.202525,0.583402
20030,,4.233373,0.918203,8.971672,0.000599,0.011498,-0.021202,0.685791,0.359863,1.172363,-0.781011,0.093010,0.202510,0.583404
20031,,4.210420,0.902837,8.931591,0.000196,0.005140,-0.020161,0.683594,0.355225,1.174805,-0.781008,0.093013,0.202514,0.583406
20032,,4.208611,0.884701,8.969581,-0.000799,0.006153,-0.023263,0.683594,0.355225,1.177002,-0.781001,0.093015,0.202517,0.583415
20033,,4.211764,0.935285,8.947691,-0.000340,0.008241,-0.020469,0.694336,0.360107,1.170166,-0.781002,0.093012,0.202502,0.583419
20034,,4.219032,0.913594,8.952669,-0.000434,0.006420,-0.021790,0.687988,0.357422,1.178955,-0.781000,0.093013,0.202504,0.583421
20035,,4.226456,0.891744,8.957594,-0.002025,0.005370,-0.016363,0.687744,0.362061,1.172363,-0.781011,0.093029,0.202501,0.583404
20036,,4.237840,0.919675,8.940325,0.001404,0.006841,-0.020741,0.692139,0.362061,1.176758,-0.781013,0.093023,0.202506,0.583401
20037,,4.195447,0.892072,9.004123,-0.004763,0.007780,-0.019196,0.687988,0.359863,1.174561,-0.781012,0.093039,0.202487,0.583406
20038,,4.214851,0.897339,8.991583,-0.000433,0.006418,-0.021791,0.690186,0.359863,1.170166,-0.781010,0.093040,0.202489,0.583409
20039,,4.223389,0.894612,8.958754,-0.000912,0.005252,-0.018264,0.694580,0.357666,1.172607,-0.781014,0.093049,0.202491,0.583401
20040,,4.222690,0.895308,8.959014,-0.001544,0.006533,-0.019893,0.687988,0.357666,1.174805,-0.781016,0.093056,0.202488,0.583398
20041,,4.213706,0.918536,8.954671,-0.001813,0.008083,-0.020047,0.687744,0.362061,1.174561,-0.781021,0.093060,0.202477,0.583394
20042,,4.200876,0.891970,8.972486,-0.002748,0.004827,-0.019314,0.689941,0.362061,1.170166,-0.781023,0.093078,0.202477,0.583389
20043,,4.231457,0.905523,8.980073,-0.000161,0.004865,-0.021639,0.690186,0.357666,1.176758,-0.781014,0.093081,0.202485,0.583398
20044,,4.230971,0.906262,8.980227,-0.001846,0.001994,-0.017532,0.685791,0.355225,1.172607,-0.781019,0.093105,0.202498,0.583383
20045,,4.220488,0.917611,8.922493,-0.004762,0.007773,-0.019199,0.685791,0.357422,1.170410,-0.781023,0.093122,0.202476,0.583382
20046,,4.218793,0.899146,8.960466,-0.000733,0.001878,-0.019432,0.683594,0.359619,1.174561,-0.781023,0.093140,0.202493,0.583374
20047,,4.232063,0.938656,8.996415,-0.002385,0.005094,-0.017841,0.694336,0.360107,1.170166,-0.781025,0.093156,0.202487,0.583370
20048,,4.228723,0.908600,8.981050,-0.001002,0.003428,-0.019587,0.687744,0.362061,1.170166,-0.781026,0.093170,0.202498,0.583363
20049,,4.216203,0.882144,8.998715,-0.001364,0.003157,-0.021062,0.694580,0.355469,1.172607,-0.781019,0.093184,0.202511,0.583366
20050,,4.256188,0.892215,8.973166,-0.002838,0.003002,-0.020638,0.689697,0.368896,1.172119,-0.781015,0.093206,0.202518,0.583365
20051,,4.227137,0.910932,8.981560,0.002881,0.006992,-0.021169,0.690186,0.357666,1.174805,-0.781013,0.093192,0.202529,0.583366
20052,,4.215533,0.903699,8.961542,-0.001001,0.003425,-0.019588,0.690186,0.357666,1.168213,-0.781013,0.093206,0.202539,0.583359
20053,,4.213681,0.885420,8.999574,-0.000247,0.010052,-0.019154,0.690186,0.359863,1.172363,-0.781023,0.093199,0.202525,0.583353
20054,,4.244980,0.918332,8.969562,0.002521,0.006721,-0.022645,0.689941,0.362061,1.172363,-0.781019,0.093187,0.202535,0.583356
20055,,4.232231,0.892214,8.987309,0.001679,0.005284,-0.020592,0.692383,0.357666,1.170410,-0.781017,0.093184,0.202546,0.583357
20056,,4.243439,0.920445,8.970075,0.001137,0.008384,-0.020901,0.692383,0.355469,1.170410,-0.781019,0.093174,0.202544,0.583355
20057,,4.219562,0.886029,8.967693,0.000776,0.008113,-0.022376,0.690186,0.357666,1.172607,-0.781021,0.093166,0.202544,0.583354
20058,,4.249784,0.899945,8.975429,0.001138,0.008383,-0.020901,0.687988,0.357422,1.177002,-0.781024,0.093156,0.202542,0.583353
20059,,4.229696,0.915170,8.950871,-0.000336,0.008226,-0.020478,0.692383,0.359863,1.170166,-0.781026,0.093153,0.202533,0.583353
20060,,4.216648,0.888767,8.968793,-0.001241,0.011055,-0.022262,0.685791,0.357422,1.174805,-0.781027,0.093143,0.202514,0.583361
20061,,4.227703,0.917109,8.951614,0.003911,0.005052,-0.024392,0.690186,0.357666,1.168213,-0.781015,0.093128,0.202533,0.583371
20062,,4.254088,0.881379,8.981573,-0.000791,0.013145,-0.019467,0.694336,0.364502,1.174316,-0.781026,0.093114,0.202506,0.583369
20063,,4.213479,0.891957,8.969966,0.003457,0.009972,-0.023381,0.692383,0.357666,1.172607,-0.781023,0.093087,0.202508,0.583377
20064,,4.232622,0.897866,8.957531,0.000147,0.009386,-0.024009,0.692383,0.357666,1.172607,-0.781017,0.093075,0.202501,0.583389
20065,,4.231406,0.898922,8.958000,0.001798,0.013184,-0.021792,0.690186,0.359863,1.172363,-0.781025,0.093049,0.202483,0.583389
20066,,4.238358,0.877522,8.963188,0.002071,0.011634,-0.021637,0.690186,0.359863,1.172363,-0.781029,0.093025,0.202471,0.583391
20067,,4.250651,0.917641,8.999459,0.003186,0.011519,-0.023537,0.687988,0.355225,1.172607,-0.781026,0.092995,0.202464,0.583402
20068,,4.246699,0.888194,8.984397,0.003273,0.013339,-0.022217,0.690186,0.357666,1.170410,-0.781031,0.092961,0.202449,0.583406
20069,,4.226039,0.903677,8.960054,-0.000546,0.014921,-0.029481,0.687744,0.364258,1.174316,-0.781017,0.092931,0.202419,0.583441
20070,,4.227128,0.935663,8.976200,0.005109,0.013767,-0.021165,0.690186,0.359863,1.172363,-0.781026,0.092890,0.202408,0.583439
20071,,4.202772,0.901414,8.974042,0.000175,0.015461,-0.026531,0.685791,0.359863,1.174561,-0.781014,0.092856,0.202378,0.583470
20072,,4.221598,0.907298,8.961782,-0.000838,0.010382,-0.027120,0.685791,0.359863,1.170410,-0.781000,0.092842,0.202365,0.583496
20073,,4.219107,0.889503,9.000073,0.003484,0.016048,-0.025903,0.687988,0.357666,1.172607,-0.780993,0.092794,0.202339,0.583522
20074,,4.189040,0.908591,9.008763,0.004392,0.013220,-0.024118,0.683350,0.362061,1.167969,-0.780993,0.092754,0.202329,0.583532
20075,,4.217109,0.911292,8.963490,0.001652,0.015614,-0.026958,0.690186,0.359863,1.174561,-0.780982,0.092714,0.202302,0.583562
20076,,4.232132,0.867689,8.973498,0.004119,0.014767,-0.024274,0.687988,0.357666,1.172607,-0.780983,0.092671,0.202285,0.583574
20077,,4.216582,0.944781,8.980204,0.003677,0.012672,-0.027071,0.687988,0.357666,1.168213,-0.780973,0.092632,0.202275,0.583596
20078,,4.210270,0.884282,8.949583,-0.006014,0.010282,-0.022482,0.687744,0.362061,1.170166,-0.780970,0.092643,0.202246,0.583609
20079,,4.242461,0.928983,8.973178,0.003487,0.016042,-0.025907,0.687988,0.357666,1.170410,-0.780966,0.092597,0.202224,0.583630
20080,,4.200195,0.920575,8.999470,-0.000013,0.018819,-0.025373,0.687744,0.362061,1.176758,-0.780966,0.092556,0.202180,0.583652
20081,,4.207890,0.918251,8.967111,0.000456,0.013899,-0.026384,0.690186,0.357666,1.166016,-0.780956,0.092527,0.202155,0.583677
20082,,4.195486,0.911264,8.947459,0.003489,0.016039,-0.025908,0.687744,0.364258,1.174316,-0.780953,0.092481,0.202133,0.583697
20083,,4.176211,0.938414,8.976373,0.001090,0.012621,-0.024754,0.687744,0.362061,1.170166,-0.780948,0.092454,0.202118,0.583713
20084,,4.172399,0.908567,8.961349,-0.002620,0.012686,-0.020536,0.685791,0.359619,1.176758,-0.780954,0.092447,0.202088,0.583716
20085,,4.172183,0.928527,8.924108,0.003557,0.011777,-0.022068,0.685547,0.364258,1.176514,-0.780955,0.092416,0.202079,0.583723
20086,,4.200995,0.923665,8.969788,-0.000949,0.009474,-0.022124,0.690186,0.359863,1.178955,-0.780954,0.092410,0.202067,0.583729
20087,,4.205917,0.871494,8.959306,0.002278,0.008246,-0.022812,0.685547,0.362061,1.172363,-0.780948,0.092393,0.202067,0.583741
20088,,4.207352,0.903210,8.975236,-0.000591,0.009746,-0.020649,0.692139,0.362305,1.167969,-0.780952,0.092386,0.202055,0.583741
20089,,4.197912,0.926650,8.970923,0.001646,0.009519,-0.024445,0.685791,0.359619,1.176758,-0.780943,0.092367,0.202054,0.583755
20090,,4.184896,0.900486,8.988820,0.001726,0.011340,-0.023125,0.687744,0.362061,1.174561,-0.780943,0.092344,0.202043,0.583763
20091,,4.212304,0.883894,8.981243,-0.001223,0.011017,-0.022282,0.687988,0.359863,1.174561,-0.780940,0.092334,0.202022,0.583776
20092,,4.174085,0.925049,8.985020,0.003965,0.011113,-0.026922,0.685791,0.359863,1.174561,-0.780929,0.092299,0.202020,0.583796
20093,,4.221826,0.913944,8.964590,0.006352,0.008452,-0.025556,0.687988,0.359863,1.172363,-0.780920,0.092263,0.202033,0.583810
20094,,4.181316,0.924489,8.952734,0.000609,0.011449,-0.021229,0.687744,0.362061,1.176758,-0.780924,0.092246,0.202018,0.583812
20095,,4.217183,0.885620,8.949859,0.003837,0.010223,-0.021916,0.690186,0.359863,1.170166,-0.780925,0.092219,0.202016,0.583815
20096,,4.189807,0.935093,8.973836,0.002006,0.009786,-0.022972,0.690186,0.357666,1.176758,-0.780924,0.092200,0.202012,0.583822
20097,,4.205548,0.891320,8.983675,0.000176,0.009349,-0.024028,0.685791,0.357422,1.170410,-0.780921,0.092189,0.202006,0.583830
20098,,4.207962,0.942190,8.961834,0.001930,0.007963,-0.024294,0.685791,0.357422,1.174805,-0.780914,0.092174,0.202009,0.583841
20099,,4.183304,0.888673,8.997132,0.002363,0.010059,-0.021497,0.685547,0.364258,1.172363,-0.780919,0.092154,0.202002,0.583840
20100,,4.223890,0.911368,9.025376,0.001019,0.010781,-0.026084,0.685791,0.357422,1.174805,-0.780909,0.092133,0.201993,0.583860
20101,,4.192885,0.918423,8.980460,0.003407,0.008123,-0.024716,0.681152,0.366455,1.169922,-0.780899,0.092110,0.201998,0.583875
20102,,4.200230,0.897149,8.985582,0.000610,0.011441,-0.021234,0.683594,0.361816,1.176758,-0.780903,0.092093,0.201983,0.583876
20103,,4.279869,0.918049,8.935137,0.004403,0.013201,-0.024130,0.685547,0.362061,1.172363,-0.780895,0.092051,0.201970,0.583899
20104,,4.119943,0.929532,9.015332,-0.000023,0.012711,-0.022868,0.685547,0.364258,1.172363,-0.780895,0.092031,0.201949,0.583909
20105,,4.218784,0.936158,8.989924,0.000257,0.011163,-0.022712,0.689941,0.364258,1.174316,-0.780891,0.092013,0.201934,0.583923
20106,,4.203449,0.878959,8.992339,-0.001497,0.012546,-0.022449,0.681396,0.357422,1.177002,-0.780892,0.092000,0.201909,0.583932
