PacketCounter,SampleTimeFine,Acc_X,Acc_Y,Acc_Z,Gyr_X,Gyr_Y,Gyr_Z,Mag_X,Mag_Y,Mag_Z,Quat_q0,Quat_q1,Quat_q2,Quat_q3
19741,NaN,9.751488,1.556792,-0.585309,-0.030613,-0.011828,-0.02091,1.022217,-0.008789,-1.019043,-0.665171813528279,0.0578208286044052,0.725783592598028,0.165653198521791
19742,NaN,9.740162,1.623578,-0.480165,-0.035531,-0.013799,-0.020824,1.024658,-0.01123,-1.023438,-0.665087667821318,0.0578462844485279,0.725820362150649,0.165820782828933
19743,NaN,9.750913,1.584441,-0.595457,-0.042843,-0.021125,-0.025133,1.024414,-0.006592,-1.021484,-0.664962509921048,0.0579198235537713,0.725875516479582,0.166059077814192
19744,NaN,9.753549,1.587762,-0.523588,-0.041429,-0.019298,-0.027705,1.012939,-0.004639,-1.028076,-0.664850787049621,0.057945279397894,0.725926428167827,0.166268381421424
19745,NaN,9.715322,1.591271,-0.596448,-0.050591,-0.02002,-0.029328,1.02002,-0.009033,-1.023438,-0.664723507829007,0.0580273037845117,0.725973097215386,0.166549809920336
19746,NaN,9.748698,1.547538,-0.582494,-0.037341,-0.017586,-0.029627,1.022217,-0.006592,-1.02124,-0.664615320491485,0.058036496172667,0.72602330179685,0.166755577993661
19747,NaN,9.748365,1.57372,-0.592036,-0.029084,-0.018756,-0.032409,1.019775,-0.002197,-1.021484,-0.664496526552246,0.0580350819591046,0.726084112980032,0.166969124241579
19748,NaN,9.798816,1.593026,-0.62001,-0.022459,-0.014153,-0.037247,1.019775,-0.002197,-1.026123,-0.664399652923224,0.0579671997081108,0.72613643888184,0.167150850684344
19749,NaN,9.765716,1.631794,-0.595357,-0.009197,-0.012216,-0.026602,1.022217,-0.006592,-1.023682,-0.6643140930027,0.0579155809130841,0.726189471890429,0.167274594371052
19750,NaN,9.698625,1.717008,-0.585837,-0.020672,-0.016661,-0.030048,1.019775,-0.006836,-1.025879,-0.664216512266896,0.057861840797714,0.726250283073611,0.167418844154414
19751,NaN,9.732321,1.696025,-0.580042,-0.038758,-0.013208,-0.025547,1.021973,-0.004395,-1.023682,-0.664119638637874,0.0579134595927406,0.726282102878764,0.167645825431175
19752,NaN,9.729461,1.617939,-0.588474,-0.031013,-0.014326,-0.021383,1.017334,-0.002197,-1.02832,-0.664036200037694,0.0579141666995218,0.726325236392417,0.167790075214537
19753,NaN,9.763533,1.619192,-0.590971,-0.028629,-0.015233,-0.018543,1.019531,0,-1.02832,-0.663940740622234,0.0579587144267365,0.726369784119631,0.167956245308116
19754,NaN,9.748728,1.662045,-0.550629,-0.030938,-0.012699,-0.018815,1.019775,-0.002197,-1.021484,-0.663862958876303,0.0579785134166098,0.726406553672253,0.168103323518603
19755,NaN,9.743085,1.629269,-0.648793,-0.042336,-0.015522,-0.019692,1.021729,0.002197,-1.02417,-0.663761842606593,0.0580647804439146,0.72644049479775,0.168323233727552
19756,NaN,9.775255,1.595714,-0.675389,-0.0077,-0.009257,-0.015674,1.015137,-0.002441,-1.026123,-0.663705274064098,0.0580216469302621,0.72648221409784,0.168381216483609
19757,NaN,9.73009,1.731193,-0.593075,-0.023639,-0.011629,-0.016066,1.017334,0,-1.023926,-0.663626785211387,0.0580555880557591,0.726518983650462,0.168521930733065
19758,NaN,9.741878,1.611487,-0.642847,-0.034958,-0.01282,-0.014361,1.019775,-0.002197,-1.023926,-0.6635511247858,0.0581015499965363,0.726550803455615,0.168665473409646
19759,NaN,9.761211,1.607411,-0.58734,-0.020078,-0.009338,-0.021961,1.019531,0,-1.02832,-0.663476878573775,0.058100842889755,0.726584037474331,0.168813258726914
19760,NaN,9.744638,1.638754,-0.57899,-0.018882,-0.006661,-0.019754,1.015137,-0.002441,-1.026123,-0.663426673992311,0.0580612449100086,0.726610907532016,0.168910132355937
19761,NaN,9.760643,1.634598,-0.596259,-0.012851,-0.003632,-0.02021,1.019287,0.006836,-1.021973,-0.663376469410847,0.0580372032794483,0.726630706521889,0.169028219188395
19762,NaN,9.724239,1.648789,-0.635406,-0.015455,-0.001898,-0.018293,1.017334,-0.002197,-1.023682,-0.663341821178568,0.0580039692607325,0.726642727337169,0.169125092817417
19763,NaN,9.725814,1.685345,-0.611073,-0.01062,-0.001546,-0.02096,1.021729,0.002197,-1.026367,-0.663299394771697,0.0579686139216731,0.726658283686356,0.169238229902407
19764,NaN,9.70897,1.670455,-0.585703,-0.021859,-0.001111,-0.016672,1.017334,0.002197,-1.026367,-0.66327111050045,0.0579459865046752,0.726662526327043,0.169337224851773
19765,NaN,9.741375,1.660076,-0.619594,-0.022762,-0.002993,-0.021072,1.015137,0,-1.023926,-0.663219491705423,0.0579509362521435,0.726671718715198,0.169494909663978
19766,NaN,9.775381,1.638269,-0.612918,-0.018434,-0.002605,-0.016786,1.023926,0.006836,-1.024414,-0.663186257686707,0.0579205306605525,0.726685153744041,0.169584712225189
19767,NaN,9.757133,1.657667,-0.636166,-0.018141,0.004453,-0.017394,1.017334,0.002197,-1.026367,-0.663166458696834,0.0579177022334277,0.726672425821979,0.169714819872927
19768,NaN,9.740488,1.665752,-0.618317,-0.016734,0.006297,-0.019953,1.01709,0.004395,-1.02417,-0.663160094735804,0.0578710331858694,0.726656869472793,0.169820178783324
19769,NaN,9.705738,1.668431,-0.615772,-0.016656,0.007929,-0.017369,1.015137,0,-1.019287,-0.663154437881554,0.0578611336909328,0.726634242055795,0.169946043790375
19770,NaN,9.721732,1.641137,-0.62358,-0.01368,0.00863,-0.018889,1.021729,0.004639,-1.021973,-0.663158680522241,0.0578038580416567,0.726613735959141,0.170035139244804
19771,NaN,9.755939,1.642504,-0.623896,-0.012725,0.012665,-0.022857,1.017334,0.004639,-0.994873,-0.663166458696834,0.0577564818873172,0.726580501940425,0.170165953999324
19772,NaN,9.755683,1.644506,-0.622621,-0.00906,0.00982,-0.016785,1.021729,0.004639,-1.02417,-0.66316999423074,0.0577352686838817,0.726552217669178,0.170272727123283
19773,NaN,9.73757,1.687115,-0.653087,0.001646,0.016211,-0.02349,1.019531,0.002197,-1.021729,-0.663194035861301,0.0576348595209531,0.726519690757243,0.170354751509901
19774,NaN,9.75521,1.648503,-0.61946,-0.007288,0.020355,-0.017363,1.021484,0.009033,-1.026611,-0.663247068869889,0.0575450569597424,0.726465243535092,0.170412027159177
19775,NaN,9.738736,1.679489,-0.608673,0.005521,0.018791,-0.02061,1.014648,0.009033,-1.019775,-0.663283838422511,0.0574396980493456,0.726426352662126,0.170471424128796
19776,NaN,9.722002,1.664606,-0.581564,-0.005137,0.020808,-0.020701,1.01709,0.009033,-1.019775,-0.663329093256507,0.057357673662728,0.726371198333194,0.170557691156101
19777,NaN,9.73833,1.683315,-0.604593,-0.005354,0.021639,-0.015931,1.01709,0.006836,-1.019775,-0.663376469410847,0.0573032264405766,0.726312508470355,0.170641836863062
19778,NaN,9.701936,1.651041,-0.625202,-0.001556,0.022588,-0.015635,1.019531,0.004639,-1.021973,-0.663433745060123,0.0572282731217708,0.726253111500736,0.170700526725901
19779,NaN,9.75445,1.680403,-0.617392,0.010139,0.019982,-0.018507,1.014893,0.002197,-1.023926,-0.663476878573775,0.0571144289299998,0.726212806414208,0.170736589171741
19780,NaN,9.750809,1.612758,-0.664307,0.024743,0.022183,-0.012943,1.019287,0.009033,-1.024414,-0.663549710572237,0.0569298740601101,0.726179572395492,0.170659514532592
19781,NaN,9.72115,1.649332,-0.563709,0.040528,0.021325,-0.017705,1.016846,0.01123,-1.02002,-0.663606986221513,0.0567163278121918,0.726161187619181,0.170582439893443
19782,NaN,9.773365,1.632897,-0.540364,0.02787,0.014151,-0.023412,1.017334,0,-1.021729,-0.663633856279199,0.0565254089812715,0.726156944978494,0.170561226690007
19783,NaN,9.753408,1.617898,-0.587195,0.029424,0.019262,-0.020803,1.012451,0.006592,-1.028809,-0.663678404006413,0.0563401470046005,0.726137145988621,0.170533649525541
19784,NaN,9.751587,1.631587,-0.626473,0.03291,0.019919,-0.029291,1.02417,0.004639,-1.010742,-0.663731437015002,0.0560672037870625,0.726123003852997,0.170477788089827
19785,NaN,9.702072,1.698584,-0.590587,0.037451,0.019475,-0.029777,1.012695,0.004395,-1.019531,-0.663771034994749,0.055822544840772,0.726111690144498,0.170450918032142
19786,NaN,9.734511,1.666009,-0.614862,0.043837,0.024944,-0.029841,1.019287,0.009033,-1.022217,-0.66383750303218,0.0555418234486409,0.726085527193594,0.170391521062522
19787,NaN,9.717792,1.697697,-0.604491,0.054853,0.025354,-0.029366,1.019531,0.004639,-1.017334,-0.663903971069612,0.0552356462123871,0.726069263737627,0.170302425608093
19788,NaN,9.719196,1.757671,-0.586758,0.045833,0.027855,-0.025845,1.012451,0.006592,-1.017334,-0.663985288349448,0.0549577532473808,0.726036029718911,0.170221108328256
19789,NaN,9.720296,1.725725,-0.536233,0.038259,0.019686,-0.028013,1.014893,0.006592,-1.021973,-0.664027714756319,0.054715922728215,0.72602330179685,0.170185752989197
19790,NaN,9.719899,1.705124,-0.526433,0.035261,0.025234,-0.02494,1.019531,0.006836,-1.015137,-0.664095597007313,0.0544825774904235,0.725989360671353,0.170141912368763
19791,NaN,9.736236,1.770184,-0.566466,0.020537,0.019238,-0.024705,1.019287,0.01123,-1.022217,-0.664133780773497,0.0543121647561575,0.725963197720449,0.170160297145074
19792,NaN,9.752293,1.720317,-0.565423,0.025898,0.019049,-0.023372,1.019287,0.009033,-1.019775,-0.664175500073587,0.0541311454201737,0.725939156089889,0.170153933184044
19793,NaN,9.717528,1.72284,-0.562792,0.034395,0.016586,-0.019948,1.01709,0.009033,-1.022217,-0.66421297673299,0.0539345697350039,0.725932085022077,0.170105142816142
19794,NaN,9.700852,1.753598,-0.553119,0.035212,0.016833,-0.01814,1.014648,0.013428,-1.024658,-0.66425469603308,0.0537372869430529,0.725922892633921,0.170040796099054
19795,NaN,9.769637,1.753874,-0.554955,0.018701,0.012826,-0.014162,1.019287,0.009033,-1.024414,-0.664278030556859,0.0536170787902512,0.725912993138985,0.170028775283774
19796,NaN,9.748424,1.703199,-0.625903,0.026191,0.019343,-0.014611,1.017334,0.002197,-1.019531,-0.664328235138324,0.0534615152983901,0.725887537294862,0.169988470197246
19797,NaN,9.715189,1.694105,-0.58255,0.043017,0.017873,-0.022352,1.014893,0.006592,-1.019775,-0.664369954438414,0.053226048740255,0.725884001760956,0.169917052412346
19798,NaN,9.700042,1.759449,-0.548724,0.032298,0.017761,-0.014057,1.023926,0.011475,-1.02002,-0.66442157323344,0.053036544122897,0.725869859625333,0.16983573513251
19799,NaN,9.767331,1.701942,-0.565957,0.027296,0.020373,-0.015011,1.01709,0.009033,-1.015381,-0.664474606242029,0.0528788593106924,0.725842282460866,0.169796844259544
19800,NaN,9.714772,1.720945,-0.587053,0.040695,0.019911,-0.011671,1.019287,0.009033,-1.024414,-0.664531174784524,0.0526999612950522,0.725824604791337,0.169707748805115
19801,NaN,9.73421,1.761865,-0.54636,0.044353,0.017102,-0.005574,1.014648,0.009033,-1.017578,-0.664584207793113,0.0525217703861932,0.725818947937087,0.169575519837033
19802,NaN,9.729844,1.703566,-0.634464,0.044579,0.015775,0.000623,1.02417,0.004639,-1.017334,-0.664638655015265,0.0523669140011134,0.725816826616744,0.169419249238391
19803,NaN,9.698395,1.727194,-0.567563,0.060196,0.017394,0.003196,1.01709,0.004395,-1.017334,-0.664704415945915,0.0521682169955999,0.725821776364212,0.169200753243004
19804,NaN,9.701421,1.750321,-0.502132,0.051794,0.015227,0.000788,1.016846,0.01123,-1.017578,-0.664762398701972,0.0519815408053667,0.725827433218461,0.169008420198521
19805,NaN,9.749678,1.719317,-0.584765,0.038425,0.00897,0.006884,1.014648,0.01123,-1.02002,-0.664794925613907,0.0518747676814075,0.725840868247304,0.168854270920223
19806,NaN,9.733283,1.724844,-0.567679,0.052995,0.011644,0.001429,1.019287,0.01123,-1.017822,-0.664830988059747,0.0517241539370148,0.725857131703271,0.168688100826644
19807,NaN,9.716856,1.730547,-0.550606,0.050019,0.010943,0.002946,1.014648,0.009033,-1.019775,-0.664869878932713,0.0515629335909042,0.725875516479582,0.168504960170317
19808,NaN,9.733563,1.769768,-0.583965,0.029861,0.009763,0.000848,1.023926,0.011475,-1.017822,-0.664893920563273,0.0514865660585361,0.725878344906707,0.168422935783699
19809,NaN,9.697726,1.758139,-0.614365,0.021139,0.01308,0.002191,1.021973,-0.002197,-1.01709,-0.664932811436238,0.0514172695939798,0.725864202771083,0.168347275358112
19810,NaN,9.697774,1.711894,-0.596483,0.019636,0.015862,0.003719,1.01709,0.009033,-1.022217,-0.664985137338046,0.0513564584107978,0.72583874692696,0.168272322039306
19811,NaN,9.733844,1.722779,-0.564329,0.019275,0.013427,0.003334,1.014893,0.006592,-1.02417,-0.665025442424574,0.0512970614411781,0.725823190577774,0.168199490040844
19812,NaN,9.73398,1.722428,-0.563047,0.021401,0.020114,0.001516,1.01709,0.006836,-1.015137,-0.665087667821318,0.0512270578698406,0.725785713918371,0.168134436216975
19813,NaN,9.767157,1.686631,-0.587023,0.02574,0.014277,0.004279,1.019531,0.006836,-1.006104,-0.665134336868876,0.0511492761239101,0.725771571782748,0.168035441267609
19814,NaN,9.750876,1.714993,-0.577437,0.046969,0.022736,0.007501,1.019531,0.006836,-1.015137,-0.66521423993515,0.0510354319321391,0.725742580404719,0.167877756455404
19815,NaN,9.737534,1.812879,-0.520354,0.033865,0.009381,0.007319,1.021729,0.009033,-1.017578,-0.665247473953866,0.0509449222641472,0.725751065686093,0.16773845641951
19816,NaN,9.703039,1.743892,-0.493154,0.01489,0.010908,0.007428,1.019531,0.002197,-1.014893,-0.665277172438676,0.0509413867302413,0.725734802230126,0.16769037315839
19817,NaN,9.701763,1.708164,-0.516457,-0.000106,0.004171,0.00993,1.01709,0.006836,-1.021973,-0.665284950613269,0.0509788633896441,0.72573126669622,0.167664210207486
19818,NaN,9.718474,1.701129,-0.532788,0.004276,0.006678,0.005816,1.014893,0.004395,-1.02417,-0.665298385642112,0.0509922984184867,0.725723488521627,0.167642289897269
19819,NaN,9.720152,1.758219,-0.516869,-0.004709,0.002967,0.007833,1.019287,0.009277,-0.995117,-0.665298385642112,0.0510382603592638,0.725719952987721,0.167639461470144
19820,NaN,9.751794,1.687685,-0.565374,-0.014529,0.00569,-0.001425,1.021729,0.006836,-1.006348,-0.665292728787862,0.0511139207848508,0.725698032677504,0.167734213778823
19821,NaN,9.751989,1.710181,-0.572891,-0.002815,0.01052,0.010785,1.021484,0.01123,-1.022217,-0.665323841486234,0.0511577614052844,0.725671162619819,0.167715829002512
19822,NaN,9.719118,1.744972,-0.546885,-0.006794,0.004624,0.002771,1.014648,0.009033,-1.019775,-0.665319598845547,0.0512214010155911,0.725658434697758,0.167766740690758
19823,NaN,9.735831,1.738062,-0.562917,-0.013367,0.007942,0.011748,1.021729,0.004639,-1.015137,-0.665339397835421,0.0513055467225523,0.725630857533291,0.167783711253506
19824,NaN,9.719538,1.743173,-0.545149,-0.008013,0.007751,0.013081,1.01709,0.004395,-1.021973,-0.665357782611731,0.0513960563905442,0.725605401689169,0.167792196534881
19825,NaN,9.686714,1.754397,-0.51062,-0.020428,0.005526,0.015188,1.012451,0.006592,-1.019775,-0.665369803427011,0.0515183858636895,0.725579238738265,0.167822602126472
19826,NaN,9.736496,1.688433,-0.543297,-0.02987,0.003988,0.015762,1.019531,0.004639,-1.012939,-0.665371217640574,0.0516859701708307,0.725548833146674,0.16789331280459
19827,NaN,9.720294,1.716385,-0.534014,-0.027711,0.004415,0.012415,1.01709,0.004395,-1.017334,-0.66537475317448,0.051823855993162,0.725521255982208,0.167959073735241
19828,NaN,9.701262,1.697435,-0.580885,-0.026772,0.007965,0.019378,1.01709,0.004639,-1.015137,-0.665396673484697,0.0519886118731785,0.725478122468555,0.168005035676018
19829,NaN,9.734527,1.660858,-0.60519,-0.02405,0.00206,0.007539,1.023926,0.006836,-1.015381,-0.665388895310103,0.0520982134242625,0.725461859012588,0.168073625033793
19830,NaN,9.737512,1.683741,-0.53963,-0.016345,0.007241,0.013264,1.017334,0.002197,-1.012695,-0.665405158766071,0.0522092291889087,0.725431453420997,0.168104030625384
19831,NaN,9.734846,1.635996,-0.595309,-0.013341,0.001675,0.010209,1.01709,0.006592,-1.02417,-0.665400209018603,0.0522933748958699,0.725425089459966,0.168124536722038
19832,NaN,9.721365,1.688028,-0.521598,-0.006215,0.005738,0.009351,1.021484,0.009033,-1.028809,-0.665412229833883,0.052350650545146,0.725410240217561,0.168123829615257
19833,NaN,9.739696,1.738713,-0.522237,-0.021375,0.001962,0.008199,1.019531,0.004639,-1.021973,-0.665405158766071,0.0524531810284181,0.725396805188719,0.168180398157752
19834,NaN,9.753306,1.639133,-0.578143,-0.009553,0.002617,0.010494,1.021729,0.002197,-1.02417,-0.665403037445727,0.052532376987911,0.725389734120907,0.16819100475947
19835,NaN,9.720744,1.719293,-0.56942,0.006811,0.002824,0.012315,1.017334,0,-1.019287,-0.665410108513539,0.0525557115116901,0.725396098081938,0.16813160778985
19836,NaN,9.722382,1.72985,-0.536817,-0.000706,0.002582,0.014314,1.021973,0.002441,-1.015137,-0.665420008008476,0.0525974308117801,0.725396805188719,0.168076453460918
19837,NaN,9.719572,1.659067,-0.584699,-0.003809,-0.001398,0.010686,1.017334,0.002197,-1.017334,-0.665407280086414,0.0526539993542751,0.725408118897218,0.168059482898169
19838,NaN,9.773714,1.697791,-0.546351,0.005997,0.002567,0.0105,1.01709,0.006836,-1.019775,-0.665413644047445,0.05266884859668,0.725414482858248,0.168002207248893
19839,NaN,9.75583,1.668163,-0.553552,0.007199,-0.001001,0.011168,1.01709,0.006836,-1.019775,-0.665405158766071,0.0526907689068968,0.72543357474134,0.167944224492836
19840,NaN,9.722915,1.679536,-0.520119,0.020433,0.001474,0.010886,1.021973,0.002441,-1.017334,-0.665406572979633,0.052680162305179,0.725454080837995,0.167852300611281
19841,NaN,9.741159,1.707053,-0.513148,0.003707,-0.001158,0.008684,1.021729,0.006836,-1.012939,-0.665395259271134,0.0527049110425206,0.725471758507525,0.16781553105866
19842,NaN,9.735415,1.612902,-0.626201,0.005208,-0.003941,0.007158,1.019531,0.004639,-1.017334,-0.665373338960917,0.0527275384595184,0.72549862856521,0.167782297039944
19843,NaN,9.721911,1.665023,-0.553535,0.03324,-0.000134,0.007642,1.012695,0.004395,-1.017334,-0.665371924747355,0.0526490496068068,0.725537519438175,0.167642289897269
19844,NaN,9.722168,1.687034,-0.562534,0.020005,-0.002607,0.007923,1.017334,0,-1.014893,-0.66535707550495,0.0526278364033712,0.725572874777234,0.167555315763183
19845,NaN,9.738374,1.611424,-0.554693,0.013773,-0.004313,0.002197,1.024414,-0.002197,-1.019287,-0.665330912554046,0.0525974308117801,0.725610351436637,0.167502282754594
19846,NaN,9.740226,1.691575,-0.548382,0.027157,-0.004806,0.005535,1.015137,0,-1.019287,-0.66531535620486,0.052521063279412,0.725661263124882,0.167373589320418
19847,NaN,9.740281,1.691027,-0.549085,0.016812,-0.001983,0.003242,1.012695,0.002197,-1.019531,-0.665299092748893,0.0524821724064467,0.725693082930036,0.167306414176205
19848,NaN,9.722367,1.685004,-0.565176,0.011909,-0.003962,0.003339,1.017334,0.002441,-0.999268,-0.665275051118333,0.0524630805233547,0.725729145375876,0.16725550248796
19849,NaN,9.774825,1.68974,-0.551418,0.015183,-0.002494,-0.000384,1.021729,0.009033,-1.022217,-0.665253837914897,0.0524171185825775,0.725762379394592,0.167206005013277
19850,NaN,9.722539,1.707369,-0.574639,0.008182,-0.003255,0.005628,1.017334,0.002197,-1.030762,-0.665230503391118,0.0524397459995755,0.725787835238715,0.167182670489498
19851,NaN,9.722621,1.70675,-0.575082,0.011972,-0.002316,0.005911,1.019531,0.002197,-1.023926,-0.665214947041932,0.0524277251842953,0.725816826616744,0.16712468773344
19852,NaN,9.742216,1.746581,-0.536093,0.007069,-0.004294,0.00601,1.012451,0.006592,-1.021973,-0.665189491197809,0.0524355033588884,0.725848646421897,0.167083675540132
19853,NaN,9.721217,1.670708,-0.599947,-0.003937,-0.004681,0.005539,1.014893,0.006592,-1.021973,-0.66516049981978,0.0524765155521972,0.725872688052457,0.16708296843335
19854,NaN,9.721434,1.693047,-0.608758,0.003642,-0.002803,0.006105,1.021729,0.006836,-1.026611,-0.665134336868876,0.0525196490658496,0.725894608362674,0.167078018685882
19855,NaN,9.756012,1.691822,-0.610241,-0.006251,-0.002151,0.005251,1.021973,0,-1.021729,-0.665113830772222,0.0525656110066267,0.725908043391517,0.1670886252876
19856,NaN,9.719726,1.611449,-0.616097,0.006168,5.6e-05,0.003144,1.019531,0.002197,-1.019531,-0.665101809956942,0.0525677323269703,0.725924306847484,0.167066704977383
19857,NaN,9.704983,1.675038,-0.58374,0.021691,0.006241,0.004655,1.017334,0,-1.019287,-0.665118073412909,0.0525111637844753,0.725932792128858,0.166979730843297
19858,NaN,9.740827,1.663045,-0.543976,0.012483,0.003853,0.000465,1.024414,-0.002197,-1.01709,-0.665120901840034,0.0524736871250725,0.725941984517014,0.166938718649988
19859,NaN,9.756,1.644514,-0.59299,0.019762,0.004946,0.003224,1.014893,0.002197,-1.021729,-0.66513080133497,0.0524192399029212,0.725954005332294,0.16686235111762
19860,NaN,9.723273,1.702646,-0.576223,0.019698,0.003297,0.000649,1.019531,0.004639,-1.019531,-0.665135043975658,0.0523548931858331,0.725971683001823,0.166790226225939
19861,NaN,9.724572,1.691576,-0.535282,0.013595,0.004889,7.8e-05,1.012695,0.002197,-1.023926,-0.665140700829907,0.0523096383518372,0.725980168283198,0.166747799819068
19862,NaN,9.739683,1.673438,-0.584238,0.004388,0.002502,-0.004108,1.015137,0,-1.014893,-0.665129387121408,0.0522983246433382,0.725987239351009,0.166764770381817
19863,NaN,9.756254,1.667055,-0.600707,0.015585,0.00783,0.004077,1.01709,0.006836,-1.021973,-0.6651484790045,0.0522580195568106,0.725986532244228,0.166701837878291
19864,NaN,9.757733,1.678822,-0.567824,0.014257,0.0081,-0.001742,1.024414,-0.002197,-1.01709,-0.665162621140124,0.0522191286838453,0.725982996710322,0.166677796247731
19865,NaN,9.723093,1.656755,-0.557578,0.016119,0.007743,-0.002889,1.019531,0.002197,-1.019531,-0.665176056168966,0.0521519535396326,0.725983703817104,0.166636076947641
19866,NaN,9.723419,1.702579,-0.57396,0.010531,0.00881,0.000547,1.021973,0,-1.021729,-0.665197976479183,0.0521137697734485,0.725975218535729,0.166601428715362
19867,NaN,9.774399,1.672427,-0.58276,0.020035,0.011976,0.002534,1.015137,0,-1.010254,-0.665233331818243,0.0520508372699229,0.725964611934012,0.166527889610119
19868,NaN,9.741726,1.730341,-0.565718,0.012694,0.002541,0.006659,1.019531,0.002197,-1.019531,-0.665236867352148,0.0520366951342993,0.72597592564251,0.166466371320156
19869,NaN,9.740001,1.64902,-0.572235,0.018622,0.010156,0.00511,1.02417,0.000244,-1.019531,-0.665267272943739,0.0519886118731785,0.725968854574699,0.166389296681006
19870,NaN,9.725154,1.689547,-0.53111,0.016845,0.005906,0.007313,1.02417,0.002441,-1.019531,-0.665283536399707,0.0519645702426182,0.725973097215386,0.166316464682544
19871,NaN,9.739018,1.658626,-0.612391,0.012179,0.003064,0.00265,1.012695,0,-1.01709,-0.665284243506488,0.0519355788645895,0.725985118030666,0.166269088528205
19872,NaN,9.740508,1.670167,-0.579819,0.017144,0.006685,0.005115,1.02417,0.004639,-1.021973,-0.665300506962455,0.051906587486561,0.72598723935101,0.166206156024679
19873,NaN,9.724231,1.698876,-0.571172,0.02012,0.007363,0.003582,1.017334,0,-1.023926,-0.665318891738766,0.0518507260508472,0.725990774884915,0.166128374278749
19874,NaN,9.724182,1.675465,-0.562292,0.017143,0.006683,0.005111,1.019531,0,-1.021729,-0.665333740981171,0.051827391527068,0.725992896205259,0.166071098629473
19875,NaN,9.724645,1.720581,-0.57893,0.01528,0.00704,0.006256,1.021973,0,-1.023926,-0.665352125757482,0.051796985935477,0.72599360331204,0.166001802164916
19876,NaN,9.724477,1.674006,-0.561544,0.013866,0.005223,0.008836,1.021973,0,-1.021729,-0.665365560786324,0.0517920361880086,0.725997138845946,0.165936041234266
19877,NaN,9.759331,1.695202,-0.570936,0.013116,0.006616,0.009594,1.015137,-0.004639,-1.019043,-0.665384652669416,0.0517814295862909,0.725996431739165,0.165863209235804
19878,NaN,9.710077,1.735976,-0.528737,0.017416,0.007026,0.013877,1.01709,0.004395,-1.021973,-0.665411522727101,0.0517729443049166,0.725996431739165,0.16575997164575
19879,NaN,9.725326,1.693287,-0.569107,0.008362,0.001692,0.013332,1.019531,0,-1.023926,-0.665415058261007,0.0517962788286958,0.726007038340883,0.165691382287975
19880,NaN,9.741957,1.662646,-0.577092,0.009089,0.006551,0.014076,1.015137,-0.004395,-1.014648,-0.665432028823756,0.0518401194491293,0.725999967273071,0.16564047059973
19881,NaN,9.726035,1.713367,-0.576966,0.013626,0.006089,0.013594,1.019287,0.006836,-1.021973,-0.665453242027191,0.0518429478762541,0.725999967273071,0.165552789358863
19882,NaN,9.742495,1.659763,-0.576307,0.01065,0.005411,0.015124,1.022217,-0.006592,-1.014648,-0.665468798376378,0.0518832529627817,0.725997845952727,0.165489149748556
19883,NaN,9.72644,1.687296,-0.567862,0.014584,0.00339,0.019031,1.021729,0.004639,-1.019775,-0.665485061832345,0.0519044661662174,0.726006331234102,0.165379548197472
19884,NaN,9.759723,1.649612,-0.592457,0.014563,0.009641,0.020531,1.019775,0,-1.014893,-0.665524659812091,0.0519362859713707,0.725991481991697,0.165273482180294
19885,NaN,9.727153,1.683486,-0.566961,0.020087,0.006909,0.014526,1.017334,0,-1.019287,-0.665551529869776,0.0519200225154035,0.725995017525602,0.165158930881742
19886,NaN,9.743644,1.629418,-0.566341,0.021106,0.005862,0.02253,1.022217,-0.006592,-1.02124,-0.665578399927462,0.0519497210002133,0.725996431739165,0.165031651661128
19887,NaN,9.744254,1.650046,-0.574464,0.026674,0.01103,0.020591,1.021973,-0.002197,-1.019287,-0.665626483188582,0.0519306291171212,0.725990067778134,0.164874673955705
19888,NaN,9.762595,1.653524,-0.558413,0.028982,0.008493,0.020878,1.024414,-0.00415,-0.994385,-0.665667495381891,0.0519094159136856,0.725991481991697,0.164707796755345
19889,NaN,9.760222,1.62706,-0.62269,0.035442,0.009311,0.021809,1.017334,-0.002197,-1.021484,-0.665712750215887,0.0518669895068145,0.725997138845946,0.1645140494973
19890,NaN,9.744536,1.676827,-0.622901,0.041536,0.007698,0.022369,1.019531,0,-1.01709,-0.665756590836321,0.0518104209643195,0.726009866768007,0.164299089035819
19891,NaN,9.730717,1.659369,-0.524314,0.035883,0.007128,0.023231,1.019775,-0.002197,-1.01709,-0.665795481709286,0.0517736514116978,0.726022594690069,0.164098977816743
19892,NaN,9.708576,1.569058,-0.619298,0.038172,0.01084,0.025009,1.017334,-0.002197,-1.019287,-0.665844272077188,0.0517588021692929,0.726020473369725,0.163910180306166
19893,NaN,9.764466,1.618465,-0.548803,0.057061,0.007551,0.022305,1.017334,0,-1.019287,-0.665888819804402,0.0516477864046466,0.726049464747754,0.163636529981847
19894,NaN,9.712393,1.611377,-0.563273,0.054991,0.009201,0.017239,1.022217,-0.006592,-1.02124,-0.665927003570586,0.0515601051637795,0.726069263737627,0.163420155306804
19895,NaN,9.732333,1.64998,-0.523944,0.046727,0.010396,0.020002,1.017578,-0.006836,-1.019043,-0.665977915258832,0.0514724239229123,0.726080577446126,0.163192466923262
19896,NaN,9.728499,1.611505,-0.62066,0.040139,0.006269,0.013941,1.022217,-0.006592,-1.012207,-0.666003371102955,0.0514052487786997,0.726099669329218,0.163021347082215
19897,NaN,9.731808,1.657119,-0.564749,0.048825,0.009137,0.014079,1.022217,-0.006592,-1.02124,-0.666045090403045,0.0512899903733662,0.72611876121231,0.162804265300391
19898,NaN,9.713858,1.627066,-0.571672,0.038209,0.004971,0.012511,1.022217,-0.004395,-1.016846,-0.666065596499699,0.0512235223359347,0.726139974415746,0.162645166274624
19899,NaN,9.766593,1.630048,-0.557515,0.060761,0.006766,0.019936,1.021973,-0.002197,-1.019287,-0.666105901586227,0.0510927075814152,0.726174622648024,0.162365859096055
19900,NaN,9.733273,1.697272,-0.582509,0.043978,0.008819,0.016728,1.02002,-0.006592,-1.012207,-0.666140549818505,0.0510410887863886,0.726185229249742,0.162194032148227
19901,NaN,9.749044,1.597474,-0.564403,0.038769,0.006093,0.019042,1.015381,-0.009033,-1.018799,-0.666172369623658,0.0509809847099877,0.726204321132834,0.161996749356276
19902,NaN,9.749624,1.618449,-0.573237,0.043543,0.004722,0.013792,1.015381,-0.009033,-1.02124,-0.666192168613531,0.0509081527115255,0.726230484083738,0.161819972660979
19903,NaN,9.732542,1.656611,-0.606406,0.033054,0.00388,0.017352,1.017578,-0.009033,-1.019043,-0.666212674710186,0.0508614836639671,0.726253111500736,0.161648145713151
19904,NaN,9.732247,1.609193,-0.589182,0.031128,0.00259,0.015937,1.017578,-0.009033,-1.02124,-0.666220452884779,0.0508480486351247,0.726276446024515,0.161515916745069
19905,NaN,9.698321,1.63118,-0.596932,0.033357,0.004643,0.015145,1.022217,-0.008789,-1.019043,-0.666242373194996,0.0507921871994109,0.726296952121169,0.161351160865052
19906,NaN,9.751049,1.634303,-0.582452,0.02919,0.007552,0.015989,1.024658,-0.008789,-1.019043,-0.6662685361459,0.0507837019180367,0.726301194761856,0.161228831391907
19907,NaN,9.749958,1.620302,-0.614397,0.022732,0.006748,0.015067,1.019775,-0.004395,-1.016846,-0.666294699096803,0.0507603673942575,0.726306144509325,0.161103673491637
19908,NaN,9.748903,1.606095,-0.646273,0.04514,0.011458,0.018824,1.017578,-0.009033,-1.02124,-0.666339953930799,0.0507136983466992,0.726307558722887,0.160922654155653
19909,NaN,9.752319,1.651635,-0.590526,0.034905,0.003485,0.016173,1.017822,-0.015869,-1.020752,-0.66635833870711,0.0506571298042042,0.72633301456701,0.160748705887481
19910,NaN,9.751694,1.581283,-0.564224,0.037258,0.008851,0.020482,1.022217,-0.006592,-1.02124,-0.666395108259732,0.0506337952804251,0.72633937852804,0.160579000259997
19911,NaN,9.734072,1.573625,-0.579665,0.042778,0.006067,0.014481,1.017822,-0.013428,-1.018799,-0.666423392530979,0.050542578505652,0.72636271305182,0.160382424574827
19912,NaN,9.769159,1.593814,-0.589661,0.052207,0.007508,0.013841,1.015381,-0.01123,-1.018799,-0.666450969695446,0.0504577256919096,0.726385340468818,0.160192212850688
19913,NaN,9.720115,1.634848,-0.548473,0.053381,0.010185,0.015983,1.024658,-0.008789,-1.016846,-0.666498345849785,0.0503339820052019,0.726403018138347,0.159952503651865
19914,NaN,9.739398,1.628473,-0.491974,0.045439,0.005931,0.015105,1.024658,-0.008789,-1.02124,-0.666519559053221,0.0502767063559259,0.726424938448564,0.159782798024381
19915,NaN,9.73652,1.579422,-0.547602,0.035812,0.005759,0.00954,1.024658,-0.01123,-1.023438,-0.666541479363438,0.0501918535421835,0.726444737438437,0.159627941639301
19916,NaN,9.755727,1.651983,-0.558639,0.029243,0.002924,0.017018,1.020264,-0.015625,-1.020752,-0.666546429110906,0.0502116525320567,0.726461708001186,0.159522582728904
19917,NaN,9.752852,1.602842,-0.614266,0.022594,0.003405,0.009914,1.022217,-0.009033,-1.02124,-0.666557035712624,0.0501741758726539,0.726479385670715,0.159414395391382
19918,NaN,9.736836,1.631129,-0.606549,0.027932,0.003167,0.011215,1.02002,-0.013428,-1.023193,-0.666558449926186,0.0501699332319667,0.726496356233464,0.159325299936953
19919,NaN,9.721885,1.648915,-0.558053,0.024277,-0.000676,0.014603,1.015381,-0.01123,-1.020996,-0.666558449926186,0.0501465987081876,0.726528176038617,0.159193778075652
19920,NaN,9.754157,1.565712,-0.565079,0.028738,0.00342,0.013005,1.022217,-0.009033,-1.023438,-0.66656057124653,0.0501557910963429,0.726544439494584,0.159105389728004
19921,NaN,9.753352,1.574505,-0.606294,0.035935,0.002801,0.013154,1.015381,-0.009033,-1.02124,-0.666574713382153,0.0500850804182243,0.726574137979394,0.158937098314081
19922,NaN,9.721838,1.599099,-0.541238,0.030226,0.000609,0.011498,1.017822,-0.013428,-1.011963,-0.66656057124653,0.0501041723013164,0.726600300930298,0.1588649734224
19923,NaN,9.73753,1.601445,-0.599301,0.022964,-0.000438,0.008796,1.017822,-0.013428,-1.020996,-0.666556328605843,0.0500638672147887,0.726630706521889,0.15875749319166
19924,NaN,9.754914,1.56057,-0.566231,0.027181,0.004553,0.011938,1.022461,-0.01123,-1.014404,-0.66656693520756,0.0500525535062897,0.726643434443951,0.158659205349075
19925,NaN,9.754443,1.592339,-0.616312,0.026746,0.000461,0.00904,1.024658,-0.008789,-1.016846,-0.66656693520756,0.0499995204977007,0.726673840035542,0.158537582982711
19926,NaN,9.736642,1.585529,-0.632265,0.021846,-0.001467,0.009188,1.024658,-0.010986,-1.016602,-0.666550671751593,0.0500072986722938,0.726701417200008,0.158474650479185
19927,NaN,9.736433,1.56171,-0.623521,0.032386,0.007236,0.009578,1.02002,-0.013428,-1.020996,-0.666576834702497,0.0499330524602692,0.726713438015288,0.158332522016167
19928,NaN,9.756304,1.601801,-0.58473,0.033067,0.004165,0.00628,1.024658,-0.013428,-1.020996,-0.666580370236403,0.0498948686940852,0.726731822791599,0.158245547882081
19929,NaN,9.739489,1.585101,-0.55936,0.025498,0.002359,0.005781,1.017822,-0.015625,-1.018555,-0.666583905770309,0.0498333504041219,0.72675657152894,0.158140188971684
19930,NaN,9.772723,1.570698,-0.592631,0.017248,0.003623,0.008576,1.022217,-0.009033,-1.025635,-0.666583198663528,0.0498559778211199,0.726763642596752,0.158099883885157
19931,NaN,9.73912,1.616386,-0.609343,0.023945,0.003499,0.004727,1.02002,-0.013428,-1.023193,-0.66659026973134,0.0497944595311567,0.726782734479844,0.158003717362915
19932,NaN,9.724154,1.634681,-0.560394,0.019295,0.008233,0.015054,1.024902,-0.017822,-1.022949,-0.66660229054662,0.0498658773160565,0.726773542091689,0.157970483344199
19933,NaN,9.75606,1.607443,-0.625429,0.012965,0.003221,0.004331,1.024658,-0.01123,-1.018799,-0.666605118973744,0.0498404214719338,0.726784855800188,0.157915329015267
19934,NaN,9.75722,1.596402,-0.584214,0.004905,0.003227,0.01332,1.018066,-0.020264,-1.025146,-0.666602997653401,0.049924567178895,0.726782734479844,0.157908965054236
19935,NaN,9.755672,1.559766,-0.607069,0.01092,0.00617,0.012761,1.017822,-0.013428,-1.023193,-0.666622089536493,0.0499337595670505,0.726780613159501,0.157833304628649
19936,NaN,9.739739,1.588079,-0.598974,0.010113,0.005909,0.010964,1.02002,-0.01123,-1.018799,-0.666624917963618,0.0500051773519503,0.72677424919847,0.1578276477744
19937,NaN,9.738571,1.574326,-0.630552,0.001057,0.006919,0.011965,1.017822,-0.013428,-1.020996,-0.66664400984671,0.0500440682249156,0.72676222838319,0.157791585328559
19938,NaN,9.737979,1.52778,-0.612121,0.007445,0.00603,0.010315,1.02002,-0.013428,-1.020996,-0.666648252487397,0.050114071796253,0.726753035995034,0.157792999542122
19939,NaN,9.774832,1.58395,-0.598477,0.012591,0.007046,0.005419,1.015625,-0.015869,-1.018555,-0.666665223050145,0.0500900301656926,0.726751621781472,0.157736430999627
19940,NaN,9.756702,1.554368,-0.604358,0.012468,0.011278,0.01524,1.015625,-0.018066,-1.025146,-0.666695628641736,0.0501473058149688,0.726728287257693,0.157694711699537
19941,NaN,9.739804,1.592945,-0.637019,0.013707,0.008065,0.005015,1.013184,-0.01123,-1.018799,-0.666716134738391,0.0501176073301589,0.726724044617006,0.157636021836698
19942,NaN,9.758899,1.587734,-0.579773,0.019165,0.011146,0.01139,1.020264,-0.015625,-1.016357,-0.666740176368951,0.0501557910963429,0.72670848826782,0.157597838070514
19943,NaN,9.740765,1.558184,-0.585513,0.013024,0.011133,0.008298,1.017822,-0.013428,-1.023193,-0.666774824601229,0.0501381134268133,0.726692224811852,0.157530662926301
19944,NaN,9.757939,1.573104,-0.610336,0.017985,0.008457,0.009248,1.017822,-0.013428,-1.016357,-0.666791795163978,0.0501572053099054,0.726684446637259,0.15748823651943
19945,NaN,9.744737,1.626994,-0.538012,0.016062,0.007175,0.007854,1.022461,-0.013428,-1.018799,-0.666812301260632,0.0501303352522203,0.726684446637259,0.157411161880281
19946,NaN,9.759219,1.56137,-0.568262,-0.005148,0.005245,0.006326,1.022217,-0.01123,-1.023438,-0.666812301260632,0.0502074098913696,0.726669597394854,0.15745217407359
19947,NaN,9.755749,1.490091,-0.613906,0.009178,0.008568,0.005509,1.020264,-0.015625,-1.016357,-0.66683492867763,0.0501939748625271,0.726660405006699,0.157408333453156
19948,NaN,9.741952,1.577341,-0.5913,0.010916,0.011109,0.000711,1.022705,-0.020264,-1.020752,-0.66685260634716,0.0502052885710261,0.726639191803264,0.157421768481999
19949,NaN,9.775103,1.563764,-0.623708,-0.002417,0.005476,-0.003955,1.02002,-0.013428,-1.018799,-0.666853313453941,0.0501982175032142,0.726633534949014,0.157450759860027
19950,NaN,9.739773,1.519441,-0.604285,0.012527,0.005372,0.002871,1.022705,-0.017822,-1.018555,-0.666855434774284,0.0502031672506825,0.726634242055795,0.157437324831185
19951,NaN,9.776564,1.576246,-0.590474,0.018791,0.013658,-0.001001,1.017822,-0.013428,-1.016357,-0.666893618540468,0.0501303352522203,0.726616564386266,0.15738075628869
19952,NaN,9.7596,1.560505,-0.564075,0.012714,0.009056,-0.00298,1.022461,-0.015625,-1.025391,-0.66690634646253,0.050099222553848,0.726606664891329,0.157376513648003
19953,NaN,9.74168,1.554928,-0.578919,0.012714,0.009055,-0.002981,1.022461,-0.015625,-1.023193,-0.666924731238841,0.0500426540113532,0.726601008037079,0.157348229376755
19954,NaN,9.740751,1.565305,-0.619226,0.014141,0.010834,-0.005583,1.022461,-0.015625,-1.020996,-0.666933923626996,0.0500377042638848,0.726584744581112,0.157385706036158
19955,NaN,9.743457,1.590895,-0.554233,0.005209,0.00893,-0.000932,1.018066,-0.018066,-1.018555,-0.666950894189745,0.0500136626333245,0.726572016659051,0.157377220754784
19956,NaN,9.74033,1.543217,-0.60853,0.009925,0.012102,-0.007283,1.013428,-0.013428,-0.987061,-0.666969986072837,0.0499832570417335,0.726551510562396,0.157406212132813
19957,NaN,9.760376,1.607849,-0.578121,0.00726,0.00597,-0.009356,1.015869,-0.020264,-1.020508,-0.666969278966056,0.0499238600721138,0.726552924775959,0.157418232948093
19958,NaN,9.741985,1.579865,-0.583979,0.003658,0.010074,-0.001985,1.022217,-0.008789,-1.019043,-0.667005341411896,0.0498404214719337,0.726537368426773,0.157365199939504
19959,NaN,9.741089,1.590177,-0.624153,0.008496,0.010322,-0.004684,1.022217,-0.01123,-1.02124,-0.667025140401769,0.0497909239972508,0.726523226291149,0.157358128871692
19960,NaN,9.743745,1.615858,-0.559209,-0.000496,0.006753,-0.00257,1.022461,-0.013428,-1.020996,-0.667021604867863,0.049833350404122,0.726509084155525,0.157423889802342
19961,NaN,9.741989,1.580706,-0.581622,-0.015565,0.004838,-0.001009,1.024902,-0.015381,-0.984863,-0.667018776440738,0.0498821407720238,0.72649423491312,0.157491772053336
19962,NaN,9.774744,1.544453,-0.605015,-0.002357,0.007138,-0.001423,1.020264,-0.015625,-1.018555,-0.667039989644174,0.0498375930448091,0.72648221409784,0.157470558849901
19963,NaN,9.727214,1.623081,-0.540648,-0.002235,0.004215,0.00223,1.022461,-0.015625,-1.018555,-0.667040696750955,0.0498538565007764,0.726478678563934,0.157478337024494
19964,NaN,9.74207,1.580848,-0.579888,-0.007627,0.002798,-0.001605,1.017822,-0.013428,-1.018799,-0.667028675935675,0.0498976971212099,0.726474435923247,0.157537026887332
19965,NaN,9.759615,1.563717,-0.554845,0.002411,0.007037,0.006809,1.022461,-0.015625,-1.016357,-0.667044232284861,0.049913253470396,0.72646453642831,0.157512985256772
19966,NaN,9.743518,1.593139,-0.546666,-0.002417,0.005472,-0.003962,1.024658,-0.013428,-1.020996,-0.667042110964518,0.0499196174314267,0.726456758253717,0.157553290343299
19967,NaN,9.741758,1.558015,-0.56921,-0.00459,0.005098,-0.000617,1.018066,-0.018066,-1.018555,-0.66704352517808,0.0499330524602692,0.726448980079124,0.157578746187422
19968,NaN,9.725188,1.564945,-0.552137,-0.005706,0.004078,-0.000214,1.020264,-0.018066,-1.022949,-0.667039282537393,0.0499648722654226,0.726442616118094,0.157616929953606
19969,NaN,9.760114,1.586811,-0.561575,-0.011843,0.004066,-0.003307,1.02002,-0.013428,-1.01416,-0.667032918576362,0.0499924494298888,0.726433423729938,0.157678448243569
19970,NaN,9.723836,1.552888,-0.58322,-0.008431,0.002537,-0.003402,1.015625,-0.018066,-1.018311,-0.667020897761082,0.0500179052740116,0.726430595302813,0.157731481252158
19971,NaN,9.759155,1.597726,-0.601586,-0.006633,0.00674,-0.005664,1.015625,-0.013428,-1.01416,-0.667023726188207,0.0500179052740116,0.726417867380752,0.157780978726841
19972,NaN,9.758693,1.575388,-0.592121,-0.00986,0.000757,-0.000802,1.022705,-0.017578,-0.984619,-0.667008169839021,0.0500546748266333,0.726419281594314,0.157826233560837
19973,NaN,9.741643,1.55981,-0.566263,-0.007315,0.003556,-0.003806,1.024658,-0.013428,-1.018799,-0.667000391664428,0.0500652814283511,0.726415746060408,0.157872195501615
19974,NaN,9.725415,1.589948,-0.55818,-0.004026,0.004951,-0.007554,1.017822,-0.015869,-1.023193,-0.667002512984771,0.0500341687299789,0.726410089206159,0.157901186879643
19975,NaN,9.759826,1.589583,-0.558727,-0.013019,0.001378,-0.005447,1.02002,-0.013428,-1.023193,-0.666983421101679,0.050061038787664,0.726410089206159,0.157972604664543
19976,NaN,9.758439,1.577568,-0.590502,-0.016801,0.000481,-0.005695,1.020264,-0.015625,-1.016357,-0.666959379471119,0.0501112433691282,0.726407967885815,0.158067356973222
19977,NaN,9.757943,1.555418,-0.581172,-0.011099,0.002658,-0.004055,1.022217,-0.01123,-1.02124,-0.666947358655839,0.0501359921064697,0.726404432351909,0.158127461049623
19978,NaN,9.74171,1.585453,-0.573322,-0.006941,-0.000274,-0.004892,1.0271,-0.013428,-1.020996,-0.666924731238841,0.0501508413488747,0.726412210526503,0.158178372737868
19979,NaN,9.759544,1.591726,-0.557552,-0.002788,0.003047,-0.004304,1.02002,-0.009033,-1.019043,-0.666916245957466,0.0501458916014064,0.726414331846846,0.15820948543624
19980,NaN,9.773063,1.537409,-0.62895,-0.004338,0.004191,-0.005356,1.020264,-0.015625,-1.020752,-0.666909881996436,0.0501487200285312,0.726410089206159,0.158254033163455
19981,NaN,9.741472,1.587274,-0.572323,0.003422,0.003416,-0.012138,1.017822,-0.01123,-1.014404,-0.666897861181156,0.0500942728063798,0.726417867380752,0.158288681395733
19982,NaN,9.741776,1.610826,-0.580945,0.003972,0.004581,-0.005604,1.022461,-0.017822,-1.022949,-0.666895739860812,0.0500638672147887,0.726418574487533,0.158300702211014
19983,NaN,9.759197,1.594421,-0.555927,-0.005085,0.005594,-0.004614,1.02002,-0.010986,-0.987305,-0.666895739860812,0.0500638672147888,0.726410089206159,0.158341714404322
19984,NaN,9.741261,1.589036,-0.571032,-0.000122,0.002923,-0.003654,1.022217,-0.009033,-1.025635,-0.666891497220125,0.050046189545259,0.726413624740065,0.158353028112821
19985,NaN,9.74119,1.589506,-0.570921,-0.006194,-0.00168,-0.005638,1.02002,-0.01123,-1.018799,-0.666863212948877,0.0500511392927274,0.72642847398247,0.15839969716038
19986,NaN,9.741106,1.590062,-0.57081,-0.010353,0.00125,-0.004802,1.015625,-0.015869,-1.018555,-0.666844828172567,0.0500787164571936,0.726429181089251,0.158464750984249
19987,NaN,9.73971,1.578177,-0.602721,-0.011215,-0.000676,-0.00914,1.022461,-0.017822,-1.020752,-0.666816543901319,0.0500872017385679,0.726437666370625,0.158541118516617
19988,NaN,9.757498,1.584667,-0.587026,-0.008803,0.000106,-0.00375,1.020264,-0.015625,-1.01416,-0.666797452018227,0.0501084149420034,0.726443323224875,0.158589908884519
19989,NaN,9.740868,1.591761,-0.570133,-0.008376,0.004195,-0.000868,1.017822,-0.01123,-1.023438,-0.666793916484321,0.050133163679345,0.726435545050282,0.158630213971047
19990,NaN,9.758716,1.597948,-0.554241,-0.01339,-0.001054,-0.005797,1.022705,-0.02002,-1.016113,-0.666767046426636,0.0501642763777173,0.726442616118094,0.15870375307629
19991,NaN,9.705357,1.603922,-0.609727,-0.012274,-3.4e-05,-0.0062,1.022217,-0.008789,-1.014404,-0.666743004796076,0.0501869037947152,0.726446858758781,0.158774463754409
19992,NaN,9.758538,1.599176,-0.553829,-0.015999,0.000731,-0.00391,1.024658,-0.008789,-1.023438,-0.666724620019765,0.0502286230948052,0.726444737438437,0.158849417073214
19993,NaN,9.773814,1.580186,-0.602137,-0.017862,0.001112,-0.002766,1.020264,-0.015625,-1.023193,-0.666706235243454,0.050280948996613,0.72644049479775,0.158928613032707
19994,NaN,9.739254,1.58173,-0.600764,-0.015688,0.00149,-0.006111,1.022461,-0.01123,-1.018799,-0.666687143360362,0.0503177185492347,0.726436252157063,0.159014172953231
19995,NaN,9.758336,1.600805,-0.552676,-0.015688,0.001489,-0.006112,1.013184,-0.013672,-1.016357,-0.666668758584051,0.0503502454611693,0.726433423729938,0.159097611553411
19996,NaN,9.756991,1.588842,-0.58416,-0.011168,0.007238,-0.005176,1.029297,-0.010986,-1.02124,-0.666673001224738,0.0503686302374801,0.726413624740065,0.15916266537728
19997,NaN,9.721122,1.578104,-0.614606,-0.005637,0.004429,-0.011153,1.022461,-0.013428,-1.016602,-0.66666239462302,0.0503474170340446,0.72641079631294,0.159227012094368
19998,NaN,9.740522,1.620409,-0.575301,-0.01587,0.002748,-0.012311,1.024658,-0.013184,-1.000732,-0.666644716953491,0.0503587307425435,0.726403725245128,0.159330956791202
19999,NaN,9.772801,1.562479,-0.589928,-0.013893,0.005692,-0.008373,1.015381,-0.009033,-1.014404,-0.666639767206023,0.0503735799849485,0.726388876002724,0.159416516711726
20000,NaN,9.756449,1.593119,-0.581557,-0.013639,0.00479,-0.013116,1.02002,-0.013428,-1.020996,-0.666629160604305,0.0503707515578237,0.726377562294224,0.159513390340748
20001,NaN,9.721789,1.595379,-0.579794,-0.016249,0.006572,-0.011228,1.022461,-0.015625,-1.011963,-0.666624210856836,0.0503827723731039,0.726358470411132,0.159617335037583
20002,NaN,9.756158,1.595533,-0.579831,-0.018112,0.006951,-0.010086,1.019775,-0.004395,-1.016846,-0.666622796643274,0.0504032784697583,0.726335135887353,0.159720572627636
20003,NaN,9.737739,1.568241,-0.585591,-0.017054,0.006309,-0.013031,1.017822,-0.01123,-1.020996,-0.666615725575462,0.0504117637511325,0.726316751111042,0.159833709712626
20004,NaN,9.740077,1.594747,-0.520348,-0.014823,0.008352,-0.013833,1.022461,-0.015625,-1.018555,-0.666615018468681,0.0504124708579137,0.726292002373701,0.15994331126371
20005,NaN,9.704522,1.607406,-0.559469,-0.021642,0.005142,-0.015089,1.02002,-0.01123,-1.016602,-0.666600876333057,0.0504301485274434,0.726274324704171,0.160079075765698
20006,NaN,9.720875,1.602567,-0.575282,-0.027089,0.002053,-0.021491,1.015381,-0.006836,-1.019043,-0.666570470741466,0.0504435835562859,0.726263718102453,0.160252316927088
20007,NaN,9.737651,1.565106,-0.541339,-0.028206,0.001027,-0.021096,1.017578,-0.004395,-1.021484,-0.666533701188845,0.0504640896529404,0.72625593992786,0.160430507835947
20008,NaN,9.738059,1.612926,-0.55852,-0.031679,0.00088,-0.023558,1.015625,-0.013672,-1.023193,-0.666494810315879,0.050493081030969,0.726245333326142,0.160633447482148
20009,NaN,9.754307,1.60872,-0.574509,-0.039246,-0.000936,-0.02408,1.022217,-0.006592,-1.014648,-0.666446019947977,0.0505404571853085,0.726236140937987,0.160861842972471
20010,NaN,9.734798,1.593117,-0.621695,-0.038938,-0.000179,-0.026288,1.019775,-0.006592,-1.016846,-0.6664000580072,0.0505793480582737,0.726224120122707,0.161094481103482
20011,NaN,9.753831,1.636976,-0.582095,-0.02728,0.003301,-0.027719,1.022217,-0.008789,-1.01001,-0.666366823988485,0.0505708627768995,0.726211392200646,0.161291763895433
20012,NaN,9.754965,1.67516,-0.557883,-0.050363,0.00167,-0.028193,1.024658,-0.01123,-1.023438,-0.666323690474832,0.0506380379211122,0.726183815036179,0.161572485287564
20013,NaN,9.735989,1.626611,-0.554908,-0.053967,-0.000517,-0.022267,1.017578,-0.006836,-1.019043,-0.666274193000149,0.0507412755111655,0.726161187619181,0.161848256932226
20014,NaN,9.752209,1.622701,-0.570787,-0.056749,-0.003733,-0.028038,1.024658,-0.013428,-1.016602,-0.66620913917628,0.0508339064995009,0.726146338376776,0.16214807020745
20015,NaN,9.702211,1.668153,-0.529029,-0.059258,0.001348,-0.021067,1.015137,-0.004639,-1.021484,-0.666166712769409,0.0509576501862086,0.726111690144498,0.162439398201298
20016,NaN,9.735146,1.657265,-0.561139,-0.067944,-0.001515,-0.021218,1.022217,-0.006592,-1.023682,-0.666112972654039,0.0511082639306012,0.726079870339345,0.16275618203927
20017,NaN,9.749048,1.628078,-0.641169,-0.050456,0.001248,-0.017313,1.017334,-0.002197,-1.01709,-0.666074788887854,0.0512164512681228,0.726052293174879,0.163003669412685
20018,NaN,9.75459,1.747837,-0.537704,-0.054553,-0.000442,-0.015393,1.022217,-0.009033,-1.02124,-0.666032362480983,0.0513465589158612,0.726025423117194,0.163255399426788
20019,NaN,9.733133,1.650564,-0.590604,-0.06536,-0.002049,-0.009658,1.022217,-0.004395,-1.019287,-0.665984279219863,0.0515346493196567,0.725994310418821,0.163529756857888
20020,NaN,9.765264,1.570539,-0.596818,-0.047357,-0.001051,-0.015237,1.017822,-0.01123,-1.023438,-0.665942559919773,0.0516364726961476,0.725974511428948,0.1637510812804
20021,NaN,9.751811,1.671522,-0.540869,-0.041933,0.008279,-0.007355,1.022217,-0.004395,-1.019287,-0.665939731492648,0.0517467813540127,0.72592784238139,0.163934929043508
20022,NaN,9.748946,1.625311,-0.595596,-0.045001,-0.001943,-0.012395,1.021973,-0.002197,-1.019287,-0.665898719299339,0.051850018944066,0.725913700245766,0.164135747369365
20023,NaN,9.764559,1.630417,-0.652409,-0.024107,0.005583,-0.007075,1.024414,-0.004395,-1.023682,-0.665890941124746,0.0519037590594361,0.725889658615206,0.164253834201823
20024,NaN,9.766871,1.655765,-0.587258,-0.006276,0.002899,-0.006783,1.024414,-0.004395,-1.014648,-0.665881041629809,0.0518973950984055,0.725888951508425,0.164299089035819
20025,NaN,9.767936,1.668954,-0.554651,-0.01167,0.001464,-0.010668,1.015381,-0.006836,-1.012207,-0.665858414212811,0.0519002235255303,0.725890365721987,0.164382527635999
20026,NaN,9.732672,1.625172,-0.535894,-0.005967,0.003668,-0.008982,1.019775,-0.004395,-1.021484,-0.665849928931437,0.0518811316424382,0.725888244401643,0.164432025110682
20027,NaN,9.734032,1.66123,-0.511875,-0.012421,0.002858,-0.009921,1.019775,0,-1.012695,-0.66583366547547,0.0518882027102501,0.725884001760956,0.164516170817643
20028,NaN,9.731824,1.660375,-0.584638,-0.019496,0.000507,-0.006465,1.015381,-0.006836,-1.016846,-0.665811038058472,0.05192992201034,0.72588046622705,0.16460950891276
20029,NaN,9.731439,1.638221,-0.575476,-0.012678,0.003741,-0.00517,1.017334,0,-1.019287,-0.665801845670317,0.0519546707476816,0.725871273838895,0.164679512484097
20030,NaN,9.766133,1.661003,-0.584737,-0.010115,0.000323,-0.009615,1.019775,-0.002197,-1.023926,-0.665779218253318,0.051952549427338,0.725877637799925,0.164747394735091
20031,NaN,9.731235,1.639719,-0.574665,-0.001325,0.0065,-0.004348,1.02417,0,-1.023926,-0.665782753787225,0.0519398215052767,0.725869152518551,0.164773557685995
20032,NaN,9.732082,1.629591,-0.533173,0.002097,0.004995,-0.004431,1.021973,-0.002197,-1.023926,-0.665784168000787,0.0519136585543727,0.725867031198208,0.164782042967369
20033,NaN,9.748121,1.656806,-0.598876,0.001345,0.00639,-0.003682,1.026611,-0.00415,-1.003418,-0.665789117748255,0.0518945666712807,0.725860667237177,0.164796892209774
20034,NaN,9.764776,1.650528,-0.614879,0.011585,0.008122,-0.002468,1.017334,0,-1.019287,-0.665806795417785,0.0518379981287858,0.72585642459649,0.164762243977496
20035,NaN,9.731467,1.663682,-0.581172,0.01581,0.006875,-0.000744,1.021973,-0.002197,-1.01709,-0.665819523339846,0.0517807224795097,0.725859960130396,0.164715574929938
20036,NaN,9.749337,1.669464,-0.564849,0.016846,0.012493,-0.002231,1.021973,0.002441,-1.019531,-0.665853464465343,0.0517078904810475,0.725845110887991,0.164666077455255
20037,NaN,9.749383,1.669424,-0.564165,0.00718,0.00566,0.001653,1.012939,-0.002441,-1.019287,-0.665861242639936,0.0516887985979554,0.72584440378121,0.164641328717913
20038,NaN,9.731348,1.640481,-0.570567,0.018585,0.010072,0.005028,1.015137,-0.002197,-1.012451,-0.665892355338308,0.051641422443616,0.725836625606617,0.164563546971983
20039,NaN,9.767693,1.69733,-0.556108,0.009355,0.006061,-0.001688,1.02002,-0.006592,-1.01001,-0.66589942640612,0.0516032386774318,0.725838039820179,0.164542333768547
20040,NaN,9.765974,1.639306,-0.570465,0.009098,0.006946,0.003065,1.024414,-0.006592,-1.023682,-0.66591710407565,0.0515763686197468,0.725833797179492,0.164499200254895
20041,NaN,9.749397,1.645472,-0.553381,0.021201,0.008306,0.003136,1.012695,0,-1.019287,-0.665939024385867,0.0515148503297835,0.725835918499836,0.164419297188621
20042,NaN,9.734306,1.686613,-0.512741,0.017469,0.009041,0.005415,1.022217,-0.006592,-1.014648,-0.665967308657114,0.0514681812822252,0.725831675859148,0.164338687015566
20043,NaN,9.749649,1.644363,-0.552232,0.014799,0.009149,0.004748,1.015381,-0.006836,-1.014404,-0.665992764501237,0.0514328259431659,0.725824604791337,0.164277875832383
20044,NaN,9.732221,1.66097,-0.576277,0.011041,0.001986,0.003017,1.021729,0.002197,-1.02417,-0.665992764501237,0.0514002990312314,0.72583874692696,0.164222721503451
20045,NaN,9.748658,1.631305,-0.583805,0.016975,0.009548,0.001405,1.021973,-0.002197,-1.014893,-0.666016806131797,0.0513451447022988,0.725833090072711,0.164164738747394
20046,NaN,9.733542,1.672569,-0.543261,0.025423,0.007052,0.004852,1.024414,-0.004395,-1.01709,-0.666038726442014,0.051277969558086,0.725842282460866,0.164063622477684
20047,NaN,9.733652,1.672006,-0.543025,0.017855,0.005215,0.004306,1.021973,-0.004395,-1.025879,-0.666050040150513,0.0512341289376525,0.725850767742241,0.163991497586003
20048,NaN,9.733428,1.648806,-0.533944,0.014745,0.007489,0.002187,1.019775,-0.004395,-1.014648,-0.666069132033605,0.0511853385697507,0.725850060635459,0.16392997929604
20049,NaN,9.732358,1.636143,-0.565766,0.012516,0.005434,0.002973,1.024414,-0.002197,-1.01709,-0.666079031528542,0.051152811657816,0.725854303276146,0.163881896034919
20050,NaN,9.735017,1.683403,-0.509773,0.013579,0.004804,2.6e-05,1.019775,-0.004395,-1.014648,-0.666086102596353,0.0511061426102577,0.725861374343958,0.163835226987361
20051,NaN,9.716071,1.665212,-0.557502,-0.001866,0.00037,0.00114,1.021973,-0.002197,-1.021484,-0.666072667567511,0.0511202847458814,0.725871273838895,0.163844419375516
20052,NaN,9.733589,1.648221,-0.532817,-0.002747,0.004698,-0.001766,1.021973,0,-1.014893,-0.666073374674292,0.0511216989594439,0.725865616984645,0.163863511258608
20053,NaN,9.733866,1.671311,-0.541332,-0.00539,-0.001436,-0.003883,1.019775,-0.004395,-1.014648,-0.666047918830169,0.0511308913475992,0.72588046622705,0.16390028081123
20054,NaN,9.749411,1.652373,-0.590056,-0.008578,0.000451,0.004955,1.019775,-0.002197,-1.019287,-0.66603660512167,0.0511818030358447,0.725881880440613,0.163920079801103
20055,NaN,9.749758,1.675095,-0.598476,-0.010314,0.002864,-0.002309,1.019775,-0.002197,-1.010254,-0.666027412733515,0.0512093802003109,0.725878344906707,0.16397169859613
20056,NaN,9.731002,1.601051,-0.587411,-0.00381,0.005327,0.00118,1.021973,-0.002197,-1.008057,-0.666031655374202,0.0512270578698406,0.725869152518551,0.163987254945316
20057,NaN,9.732815,1.658902,-0.572189,-0.004172,0.002903,0.000827,1.013184,-0.009033,-1.014404,-0.666026705626734,0.0512454426461515,0.725867738304989,0.164006346828408
20058,NaN,9.731374,1.623839,-0.595256,-0.002747,0.004698,-0.001766,1.022217,-0.004395,-1.016846,-0.666028119840296,0.0512433213258079,0.725862788557521,0.164021903177594
20059,NaN,9.698317,1.659959,-0.570499,-0.00044,0.002164,-0.001453,1.015137,-0.002197,-1.01709,-0.666019634558922,0.0512419071122455,0.72586844541177,0.164034631099655
20060,NaN,9.750298,1.642416,-0.546533,-0.013423,0.005138,-0.00443,1.019531,0,-1.01709,-0.666016806131797,0.0512687771699307,0.725854303276146,0.164101099137087
20061,NaN,9.714895,1.654358,-0.586069,-0.013837,0.001058,-0.007336,1.015137,0,-1.019287,-0.665995592928362,0.0512906974801474,0.725853596169365,0.164181709310142
20062,NaN,9.767177,1.659733,-0.570742,-0.017468,0.005106,4.7e-05,1.02002,-0.009033,-1.019043,-0.665994178714799,0.051353629983673,0.725834504286273,0.164253834201823
20063,NaN,9.714486,1.632559,-0.576088,-0.026381,0.001864,-0.008867,1.017334,-0.002197,-1.012451,-0.665970137084239,0.0514116127397303,0.725821776364212,0.164385356063124
20064,NaN,9.747769,1.620205,-0.608614,-0.018323,0.003189,-0.004315,1.021973,-0.004395,-1.021484,-0.665961651802865,0.0514497965059144,0.725810462655713,0.164461723595492
20065,NaN,9.733585,1.674813,-0.535529,-0.021433,0.005462,-0.006437,1.017334,-0.002197,-1.01709,-0.665954580735053,0.0514971726602539,0.725788542345496,0.16456778961267
20066,NaN,9.749068,1.656701,-0.583547,-0.027446,0.002486,-0.00593,1.021973,-0.002197,-1.01709,-0.665938317279085,0.0515629335909042,0.725772278889529,0.164685876445128
20067,NaN,9.749793,1.646937,-0.541917,-0.031231,0.001564,-0.006209,1.017578,-0.004395,-1.016846,-0.665915689862087,0.0516470792978654,0.725756015433561,0.164825883587803
20068,NaN,9.715176,1.648702,-0.540111,-0.034784,0.005999,-0.009786,1.021973,-0.002197,-1.014893,-0.665907204580713,0.0517199112963276,0.725722781414846,0.164982861293226
20069,NaN,9.748747,1.659567,-0.580766,-0.040437,0.005442,-0.008931,1.021973,-0.002197,-1.01709,-0.665893769551871,0.0518217346728185,0.725686011862224,0.165166001949554
20070,NaN,9.731325,1.621525,-0.545724,-0.042667,0.003379,-0.008157,1.021973,-0.002197,-1.021484,-0.66587538477556,0.0519285077967777,0.725654192057071,0.165345607071975
20071,NaN,9.732607,1.657742,-0.521084,-0.036707,0.004701,-0.011222,1.024658,-0.008789,-1.012207,-0.66585770710603,0.0520098250766141,0.72562378646548,0.165523090874053
20072,NaN,9.733064,1.704601,-0.537274,-0.044227,0.004505,-0.009233,1.017334,0,-1.008057,-0.665844979183969,0.0521052844920743,0.725587724019639,0.165701281782912
20073,NaN,9.731507,1.670804,-0.559673,-0.053355,0.00379,-0.010866,1.022217,-0.004395,-1.012451,-0.665820937553409,0.052244584527968,0.725547418933111,0.165937455447828
20074,NaN,9.732145,1.661564,-0.51753,-0.051491,0.003418,-0.012016,1.02417,0.002441,-1.019531,-0.665797603029629,0.0523647926807698,0.725507820953365,0.166160194083902
20075,NaN,9.714457,1.680133,-0.540604,-0.056033,0.003879,-0.011563,1.019531,0.002197,-1.014893,-0.665771440078725,0.0525104566776942,0.725463980332931,0.166408388564098
20076,NaN,9.747717,1.668506,-0.572382,-0.065425,0.004032,-0.008454,1.021973,0,-1.01709,-0.665748812661727,0.0526935973340215,0.725410947324342,0.166674260713825
20077,NaN,9.747245,1.647201,-0.562377,-0.060318,0.003452,-0.015888,1.019775,-0.002197,-1.019287,-0.665716992856574,0.0528378471173837,0.725367106703909,0.166952153678831
20078,NaN,9.746199,1.659791,-0.601965,-0.057651,0.003336,-0.015229,1.019775,0.000244,-1.003662,-0.66569082990567,0.0529580552701853,0.725324680297038,0.167198933945465
20079,NaN,9.713394,1.663597,-0.526313,-0.064457,0.007965,-0.012538,1.019531,0.002197,-1.014893,-0.665675980663265,0.0531249324705453,0.725261040686731,0.167482483764721
20080,NaN,9.762773,1.600296,-0.557205,-0.05961,0.008266,-0.015212,1.019775,-0.002197,-1.01709,-0.665666081168329,0.0532557472250649,0.725199522396768,0.167745527487322
20081,NaN,9.711908,1.654986,-0.555185,-0.038421,0.008728,-0.016017,1.01709,0.004395,-1.017334,-0.665658302993736,0.0533222152624964,0.725155681776334,0.167945638706398
20082,NaN,9.747838,1.713802,-0.539131,-0.04639,0.010677,-0.015496,1.019531,0.004639,-1.019531,-0.66566113142086,0.0533971685813021,0.725099113233839,0.168153528100067
20083,NaN,9.779726,1.667755,-0.594613,-0.050407,0.004372,-0.012521,1.021729,0.009033,-1.013184,-0.665637796897081,0.0535202051612286,0.72505810104053,0.168384752017515
20084,NaN,9.711915,1.705398,-0.567683,-0.017446,0.011708,-0.009495,1.019531,0.002197,-1.017334,-0.665654060353048,0.0535308117629463,0.725019210167565,0.168480211432975
20085,NaN,9.72927,1.689438,-0.542355,-0.042802,-1.3e-05,-0.013429,1.01709,0.006836,-1.015137,-0.665615876586864,0.0536290996055313,0.725000118284473,0.168685272399519
20086,NaN,9.7596,1.585433,-0.613888,-0.029168,0.006488,-0.010753,1.019287,0.006836,-1.017578,-0.665611633946177,0.0536708189056213,0.724969712692882,0.168818208474382
20087,NaN,9.694928,1.659049,-0.490333,-0.017461,0.003826,-0.013547,1.01709,0.006836,-1.015137,-0.665593249169867,0.0536814255073391,0.724959106091164,0.168932759772935
20088,NaN,9.728128,1.647957,-0.52308,-0.024328,-0.001074,-0.017457,1.019531,0.004639,-1.012939,-0.665556479617245,0.0536934463226193,0.724959813197945,0.169071352702047
20089,NaN,9.727823,1.649895,-0.522652,-0.018003,0.002704,-0.020126,1.02417,0.002441,-1.015137,-0.665528195345997,0.0536821326141204,0.724954156343696,0.16920994563116
20090,NaN,9.727743,1.674885,-0.530695,-0.022149,-0.000655,-0.020795,1.021484,0.011475,-1.010986,-0.665493547113719,0.0536630407310283,0.724956277664039,0.169342174599242
20091,NaN,9.743856,1.647892,-0.538545,-0.01351,0.000602,-0.023149,1.019287,0.009033,-1.019775,-0.665456777561097,0.0536276853919689,0.724961934518289,0.169473696460542
20092,NaN,9.726146,1.690615,-0.570896,-0.016676,0.001224,-0.027845,1.021484,0.01123,-1.02002,-0.665420715115257,0.0535810163444106,0.724963348731851,0.169625724418497
20093,NaN,9.743553,1.698593,-0.554495,-0.015732,0.006406,-0.018337,1.02417,0.004639,-1.010742,-0.665407987193195,0.0535654599952245,0.724946378169103,0.169750175211986
20094,NaN,9.708931,1.724344,-0.561457,-0.009415,0.002312,-0.025056,1.019287,0.006836,-1.019775,-0.665382531349073,0.0534926279967623,0.724949913703009,0.169857655442726
20095,NaN,9.744879,1.727153,-0.488501,-0.012488,0.006219,-0.024622,1.019287,0.006836,-1.017578,-0.665364853679543,0.0534438376288605,0.724939307101291,0.169991298624371
20096,NaN,9.726153,1.757602,-0.552995,-0.015693,0.000165,-0.019834,1.01709,0.009033,-1.017578,-0.665335862301515,0.0534049467558951,0.724944256848759,0.170095243321205
20097,NaN,9.726618,1.74872,-0.511598,-0.024113,0.004266,-0.020765,1.021729,0.006836,-1.019775,-0.665311113564173,0.0534098965033635,0.724927993392792,0.170258584987659
20098,NaN,9.725056,1.715937,-0.534695,-0.023311,0.004518,-0.018954,1.01709,0.009033,-1.017578,-0.665295557214987,0.0533971685813021,0.724912437043606,0.170388692635398
20099,NaN,9.70844,1.769932,-0.534121,-0.026295,0.003832,-0.017443,1.019287,0.006836,-1.017578,-0.665271515584427,0.0534219173186437,0.724894759374076,0.170548498767946
20100,NaN,9.723479,1.707776,-0.565226,-0.033157,0.006796,-0.017313,1.01709,0.009033,-1.019775,-0.665264444516615,0.0534438376288605,0.724862939568923,0.170708304900494
20101,NaN,9.724454,1.744325,-0.540146,-0.035695,0.003939,-0.014359,1.026123,0.009277,-1.017578,-0.665241109992835,0.0535117198798543,0.724836069511238,0.170891445556821
20102,NaN,9.740812,1.716617,-0.547106,-0.043626,0.007505,-0.011283,1.01709,0.009033,-1.019775,-0.665238988672492,0.0535866731986601,0.724790814677242,0.171067515145337
20103,NaN,9.738032,1.62548,-0.585452,-0.034896,0.004186,-0.012556,1.021729,0.002197,-1.021729,-0.665218482575838,0.0536580909835599,0.724763237512775,0.17124217052029
20104,NaN,9.723122,1.759495,-0.577122,-0.008482,0.015367,-0.011493,1.019043,0.013428,-1.02002,-0.665257373448803,0.0535909158393472,0.72472434663981,0.171275404539006
20105,NaN,9.727189,1.831063,-0.454078,-0.02969,0.014813,-0.010772,1.021484,0.013672,-1.013428,-0.665278586652238,0.0536425346343739,0.724665656776972,0.171428139603742
20106,NaN,9.720164,1.646417,-0.604668,-0.043233,0.011548,-0.008371,1.023682,0.015869,-1.015869,-0.665290607467519,0.0537358727294905,0.72460484559379,0.17160562340582
