// Start Time: Unknown
// Update Rate: 100.0Hz
// Filter Profile: human (46.1)
// Option Flags: AHS Disabled ICC Disabled 
// Firmware Version: 4.3.4
PacketCounter,SampleTimeFine,Acc_X,Acc_Y,Acc_Z,Gyr_X,Gyr_Y,Gyr_Z,Mag_X,Mag_Y,Mag_Z,Quat_q0,Quat_q1,Quat_q2,Quat_q3
19741,,9.923739,-0.224344,0.220435,-0.021076,0.034796,-0.003985,1.134766,0.239990,-0.007324,-0.564211,0.440360,0.537604,0.445792
19742,,9.965672,-0.209852,0.303780,-0.012719,0.035026,-0.008258,1.139160,0.242188,-0.002930,-0.564174,0.440304,0.537587,0.445914
19743,,9.948215,-0.200431,0.292513,-0.016140,0.035953,-0.006421,1.134766,0.239990,-0.005127,-0.564139,0.440258,0.537561,0.446035
19744,,9.948120,-0.199643,0.296277,-0.012869,0.040285,-0.010266,1.134766,0.239990,-0.000732,-0.564112,0.440186,0.537534,0.446175
19745,,9.930671,-0.189943,0.285268,-0.011814,0.036127,-0.009887,1.139160,0.242188,-0.007324,-0.564076,0.440122,0.537520,0.446300
19746,,9.939731,-0.247713,0.323987,0.000862,0.034565,-0.008940,1.139160,0.244385,-0.002930,-0.564067,0.440027,0.537536,0.446386
19747,,9.952180,-0.237858,0.237539,0.024609,0.037314,-0.010786,1.143555,0.244629,-0.000732,-0.564116,0.439849,0.537609,0.446411
19748,,9.977880,-0.183735,0.322590,0.045530,0.030588,-0.009436,1.139160,0.244385,-0.002930,-0.564193,0.439635,0.537737,0.446370
19749,,9.987454,-0.090387,0.409144,0.047711,0.036359,-0.011333,1.139160,0.246826,-0.003174,-0.564287,0.439396,0.537861,0.446338
19750,,9.893846,-0.053384,0.462630,0.022253,0.034069,-0.008583,1.143555,0.246826,-0.000977,-0.564324,0.439243,0.537925,0.446364
19751,,9.908503,-0.121926,0.448173,0.003215,0.035052,-0.008855,1.139160,0.244385,-0.007568,-0.564325,0.439133,0.537952,0.446438
19752,,9.953206,-0.190505,0.358324,-0.009909,0.030357,-0.008837,1.139160,0.244385,-0.002930,-0.564281,0.439078,0.537955,0.446544
19753,,9.923015,-0.201593,0.349484,-0.005469,0.033955,-0.008285,1.141357,0.246826,-0.000977,-0.564260,0.439000,0.537965,0.446635
19754,,9.978544,-0.147582,0.359191,0.003448,0.032473,-0.009177,1.134521,0.242188,-0.007324,-0.564250,0.438901,0.537994,0.446710
19755,,9.946270,-0.068842,0.365329,-0.002650,0.030057,-0.002475,1.138916,0.246826,-0.000977,-0.564238,0.438840,0.538006,0.446770
19756,,9.973789,-0.117268,0.347954,-0.013755,0.036401,-0.006371,1.136719,0.246582,-0.000977,-0.564207,0.438789,0.537979,0.446893
19757,,9.953048,-0.048583,0.335325,-0.013485,0.034553,-0.000352,1.132080,0.248779,-0.003174,-0.564188,0.438753,0.537949,0.446988
19758,,9.918335,-0.031108,0.309072,-0.024433,0.035634,-0.002241,1.134277,0.248779,0.001221,-0.564140,0.438745,0.537891,0.447126
19759,,9.973547,-0.128960,0.271200,-0.035399,0.034738,0.004542,1.139160,0.244385,0.003662,-0.564090,0.438775,0.537808,0.447261
19760,,9.952412,-0.199905,0.297811,-0.019223,0.034946,0.001359,1.132324,0.246582,-0.005371,-0.564060,0.438763,0.537756,0.447373
19761,,9.943101,-0.129595,0.353335,0.005968,0.037101,0.001310,1.138916,0.249023,0.001221,-0.564093,0.438673,0.537757,0.447418
19762,,9.933747,-0.059203,0.409027,0.002825,0.038157,0.000480,1.136963,0.242188,-0.000732,-0.564118,0.438590,0.537747,0.447480
19763,,9.915142,-0.081146,0.381408,-0.007039,0.035813,0.005310,1.136719,0.246582,0.001221,-0.564126,0.438554,0.537710,0.447549
19764,,9.919500,-0.110998,0.402235,-0.015909,0.028611,0.004183,1.136719,0.244385,0.001465,-0.564093,0.438555,0.537677,0.447630
19765,,9.954187,-0.140792,0.348111,-0.011283,0.038310,0.006424,1.132080,0.248779,-0.000977,-0.564100,0.438528,0.537621,0.447714
19766,,9.971312,-0.150136,0.366417,-0.001124,0.030135,0.005616,1.139160,0.244385,-0.000732,-0.564107,0.438488,0.537613,0.447755
19767,,9.985141,-0.099685,0.383215,0.012225,0.032258,0.005310,1.136719,0.249023,-0.003174,-0.564151,0.438400,0.537636,0.447758
19768,,9.934446,-0.043855,0.357999,0.008723,0.030489,0.009464,1.136719,0.244385,-0.000732,-0.564188,0.438341,0.537640,0.447762
19769,,9.925991,-0.094834,0.381274,0.008653,0.027793,0.011796,1.136719,0.244385,-0.002930,-0.564228,0.438290,0.537655,0.447746
19770,,9.954740,-0.114398,0.379883,0.015026,0.028360,0.011128,1.139160,0.244385,-0.000732,-0.564277,0.438223,0.537676,0.447724
19771,,9.959510,-0.156805,0.313103,0.025691,0.027135,0.015694,1.136719,0.246582,0.001221,-0.564356,0.438143,0.537716,0.447654
19772,,9.990582,-0.115984,0.344518,0.046241,0.028237,0.015442,1.139160,0.246826,-0.005371,-0.564483,0.438000,0.537798,0.447535
19773,,9.962768,-0.068569,0.367777,0.050223,0.025584,0.016986,1.138916,0.246826,-0.000977,-0.564619,0.437851,0.537900,0.447388
19774,,9.931479,-0.112521,0.341726,0.053098,0.024377,0.020472,1.139160,0.244385,-0.000732,-0.564762,0.437710,0.537997,0.447228
19775,,9.901966,-0.084058,0.435599,0.067620,0.025740,0.024573,1.138916,0.249023,0.003418,-0.564950,0.437538,0.538116,0.447017
19776,,9.959550,-0.123122,0.429816,0.057104,0.021703,0.022013,1.136719,0.246582,-0.000977,-0.565097,0.437396,0.538226,0.446837
19777,,9.907847,-0.099061,0.386988,0.053892,0.020064,0.023510,1.141602,0.239990,-0.002930,-0.565240,0.437266,0.538334,0.446653
19778,,9.918230,-0.141525,0.353603,0.050677,0.018429,0.025007,1.141357,0.246826,-0.005371,-0.565371,0.437158,0.538432,0.446474
19779,,9.965934,-0.152705,0.295851,0.064763,0.024168,0.023401,1.134521,0.248779,-0.005371,-0.565544,0.436997,0.538551,0.446270
19780,,10.003165,-0.123818,0.273940,0.065516,0.028540,0.028427,1.138916,0.249023,-0.000977,-0.565743,0.436833,0.538646,0.446063
19781,,9.933161,-0.122399,0.201258,0.053865,0.043282,0.031754,1.139160,0.246826,-0.005371,-0.565972,0.436664,0.538681,0.445896
19782,,9.996192,-0.161346,0.231525,0.058968,0.039161,0.031368,1.136719,0.249023,-0.003174,-0.566191,0.436503,0.538725,0.445721
19783,,9.958632,-0.195501,0.260577,0.066492,0.046880,0.030732,1.141357,0.244629,0.001465,-0.566454,0.436289,0.538781,0.445530
19784,,9.952226,-0.187333,0.318482,0.059024,0.047765,0.033321,1.141357,0.244629,-0.002930,-0.566701,0.436114,0.538796,0.445369
19785,,9.952013,-0.190232,0.323373,0.079344,0.047895,0.029403,1.141357,0.244629,-0.000732,-0.566984,0.435871,0.538866,0.445162
19786,,9.941300,-0.152478,0.363504,0.096564,0.049809,0.030980,1.139160,0.244385,0.001465,-0.567313,0.435579,0.538964,0.444910
19787,,9.928509,-0.132437,0.474460,0.086032,0.045792,0.028417,1.141357,0.244629,-0.000732,-0.567602,0.435318,0.539056,0.444684
19788,,9.936960,-0.085434,0.458184,0.068916,0.044555,0.033156,1.139160,0.244385,0.001465,-0.567861,0.435122,0.539103,0.444490
19789,,9.904319,-0.161111,0.418221,0.062512,0.043264,0.027470,1.141357,0.246826,-0.003174,-0.568091,0.434930,0.539153,0.444323
19790,,9.915807,-0.173570,0.403734,0.059383,0.044316,0.026617,1.141357,0.242188,-0.000732,-0.568314,0.434743,0.539194,0.444172
19791,,9.927502,-0.142722,0.492223,0.050566,0.040601,0.029491,1.134521,0.246582,-0.000977,-0.568517,0.434593,0.539225,0.444021
19792,,9.941911,-0.215170,0.479449,0.036337,0.040148,0.029041,1.145996,0.240234,-0.000732,-0.568684,0.434487,0.539220,0.443916
19793,,9.926880,-0.191561,0.397281,0.044488,0.040167,0.027484,1.141357,0.244629,0.001465,-0.568866,0.434353,0.539241,0.443788
19794,,9.953769,-0.122559,0.411669,0.044311,0.042705,0.027782,1.141357,0.242188,0.001465,-0.569055,0.434215,0.539250,0.443670
19795,,9.936515,-0.116615,0.400757,0.036192,0.042659,0.029330,1.136719,0.246582,0.003662,-0.569229,0.434106,0.539237,0.443569
19796,,9.927422,-0.168967,0.425959,0.026831,0.040663,0.028823,1.141357,0.242188,0.005859,-0.569376,0.434025,0.539211,0.443492
19797,,9.925991,-0.202110,0.413914,0.026713,0.037237,0.024840,1.139160,0.242188,0.001465,-0.569505,0.433941,0.539202,0.443419
19798,,9.925784,-0.204671,0.417610,0.037435,0.035934,0.029451,1.143555,0.244629,0.008057,-0.569664,0.433842,0.539211,0.443301
19799,,9.955568,-0.195357,0.433581,0.043543,0.035563,0.025123,1.141602,0.237793,-0.005127,-0.569824,0.433718,0.539241,0.443181
19800,,9.944832,-0.157030,0.471832,0.043456,0.032880,0.027475,1.141357,0.244629,0.003662,-0.569983,0.433603,0.539276,0.443045
19801,,9.970620,-0.118693,0.469356,0.029820,0.033444,0.028032,1.136719,0.244385,0.001465,-0.570116,0.433529,0.539281,0.442941
19802,,9.927436,-0.153623,0.463387,0.019443,0.035597,0.027089,1.141357,0.244629,-0.000732,-0.570229,0.433476,0.539256,0.442877
19803,,9.931053,-0.108534,0.411854,0.006747,0.038007,0.032346,1.136963,0.239990,0.006104,-0.570339,0.433458,0.539195,0.442827
19804,,9.962318,-0.190100,0.414484,-0.009756,0.039783,0.029387,1.143799,0.242432,0.008057,-0.570406,0.433486,0.539088,0.442845
19805,,9.906068,-0.245900,0.411754,-0.017083,0.038187,0.031652,1.136963,0.239990,-0.000732,-0.570453,0.433550,0.538957,0.442880
19806,,9.972428,-0.236881,0.387257,-0.014566,0.035374,0.025151,1.139160,0.242188,0.003662,-0.570488,0.433589,0.538862,0.442913
19807,,9.962926,-0.167887,0.441656,0.001363,0.040485,0.022676,1.134521,0.246582,0.001221,-0.570568,0.433562,0.538797,0.442915
19808,,9.939240,-0.072853,0.409625,-0.004974,0.034767,0.025369,1.136963,0.237793,-0.000488,-0.570623,0.433576,0.538724,0.442920
19809,,9.911451,-0.102946,0.505744,-0.018133,0.032918,0.022958,1.143799,0.237793,0.006104,-0.570645,0.433615,0.538644,0.442951
19810,,9.921825,-0.146282,0.473903,-0.023667,0.025626,0.026379,1.141357,0.242188,0.003662,-0.570636,0.433705,0.538554,0.442983
19811,,9.942760,-0.230435,0.406997,-0.009094,0.026119,0.024217,1.138916,0.246826,0.005859,-0.570653,0.433752,0.538495,0.442987
19812,,9.946442,-0.261928,0.427794,0.009252,0.026497,0.023946,1.141602,0.239990,0.001465,-0.570713,0.433739,0.538480,0.442940
19813,,9.984220,-0.233553,0.405891,0.018209,0.024922,0.023149,1.143799,0.242432,-0.000732,-0.570791,0.433694,0.538499,0.442860
19814,,9.982787,-0.145519,0.421717,0.024885,0.017641,0.024280,1.136963,0.237793,-0.000488,-0.570862,0.433658,0.538543,0.442751
19815,,9.951028,-0.146330,0.498623,0.003587,0.029636,0.023240,1.139404,0.235596,-0.000488,-0.570920,0.433648,0.538517,0.442717
19816,,9.940705,-0.151798,0.433228,-0.018020,0.027682,0.024993,1.139404,0.235596,-0.000488,-0.570927,0.433714,0.538436,0.442743
19817,,9.898763,-0.156001,0.442007,-0.037095,0.023666,0.026579,1.141602,0.239990,0.008301,-0.570882,0.433854,0.538320,0.442805
19818,,9.928527,-0.267829,0.427192,-0.042285,0.024379,0.022928,1.139404,0.237793,-0.000488,-0.570822,0.433990,0.538200,0.442894
19819,,9.923329,-0.271425,0.395195,-0.032553,0.020489,0.016538,1.141602,0.239990,0.008301,-0.570758,0.434093,0.538125,0.442967
19820,,9.937593,-0.222368,0.410268,-0.015432,0.019644,0.020561,1.143799,0.239990,0.003662,-0.570738,0.434157,0.538082,0.442981
19821,,9.931987,-0.181979,0.480683,-0.018368,0.012241,0.015124,1.143799,0.242432,0.005859,-0.570679,0.434234,0.538064,0.443005
19822,,9.945000,-0.163297,0.479360,-0.022167,0.018299,0.017505,1.136963,0.239990,-0.000732,-0.570635,0.434312,0.538017,0.443043
19823,,9.923683,-0.204334,0.520643,-0.019162,0.013811,0.014393,1.134766,0.237549,0.001709,-0.570582,0.434377,0.538004,0.443064
19824,,9.903019,-0.168000,0.488196,-0.025221,0.008228,0.014418,1.136719,0.244385,0.001465,-0.570497,0.434477,0.537985,0.443097
19825,,9.932930,-0.157865,0.501509,-0.035405,0.007856,0.013146,1.139404,0.237793,0.003906,-0.570392,0.434594,0.537960,0.443148
19826,,9.925253,-0.221932,0.436004,-0.046505,0.006389,0.013494,1.134766,0.237549,0.003906,-0.570253,0.434757,0.537902,0.443237
19827,,9.933311,-0.204640,0.399555,-0.045992,0.004679,0.016872,1.139404,0.237793,0.001709,-0.570118,0.434934,0.537841,0.443311
19828,,9.930654,-0.267180,0.367728,-0.035356,0.001901,0.008864,1.139160,0.242188,0.005859,-0.569982,0.435063,0.537830,0.443373
19829,,9.961899,-0.226108,0.396744,-0.025522,0.007358,0.010738,1.139160,0.242188,0.003662,-0.569887,0.435154,0.537824,0.443413
19830,,9.956845,-0.228481,0.363092,-0.020180,0.003364,0.007760,1.141602,0.239990,0.001465,-0.569785,0.435234,0.537846,0.443440
19831,,9.939969,-0.220727,0.348165,-0.012817,0.005664,0.011849,1.134766,0.237549,-0.000488,-0.569717,0.435292,0.537874,0.443435
19832,,9.944925,-0.220574,0.383019,-0.004235,0.009186,0.011668,1.143799,0.239990,0.003662,-0.569674,0.435324,0.537905,0.443422
19833,,9.944870,-0.221650,0.383825,-0.005483,0.007249,0.009609,1.143799,0.239990,0.001465,-0.569619,0.435357,0.537946,0.443409
19834,,9.978472,-0.240338,0.415414,-0.006753,0.011243,0.011831,1.139160,0.239990,-0.002930,-0.569577,0.435392,0.537966,0.443406
19835,,9.949740,-0.222722,0.419918,0.000160,0.010028,0.014592,1.134766,0.239990,-0.000732,-0.569555,0.435412,0.538006,0.443366
19836,,9.925487,-0.156825,0.369862,-0.011041,0.018998,0.010838,1.139160,0.244385,0.001465,-0.569522,0.435439,0.537996,0.443394
19837,,9.959063,-0.175494,0.401892,-0.012688,0.008332,0.009496,1.139160,0.239990,0.003662,-0.569461,0.435478,0.538028,0.443395
19838,,9.939523,-0.228786,0.355603,-0.022760,0.016563,0.010150,1.139160,0.239990,0.003662,-0.569394,0.435542,0.538001,0.443451
19839,,9.949953,-0.270604,0.322123,-0.013953,0.012321,0.011718,1.139160,0.242188,-0.000732,-0.569338,0.435594,0.538002,0.443470
19840,,9.944349,-0.229676,0.392521,-0.005074,0.015968,0.008893,1.143799,0.242432,0.001465,-0.569306,0.435605,0.538018,0.443481
19841,,9.952458,-0.211528,0.357325,-0.009934,0.017539,0.008917,1.141602,0.239990,-0.005127,-0.569272,0.435618,0.538029,0.443499
19842,,9.970515,-0.190748,0.390387,-0.019309,0.015594,0.008362,1.150879,0.235840,-0.000488,-0.569206,0.435669,0.538016,0.443549
19843,,9.970432,-0.191551,0.392112,-0.024041,0.019835,0.006038,1.134766,0.239990,0.001465,-0.569134,0.435722,0.537987,0.443623
19844,,9.904106,-0.247351,0.318726,-0.014506,0.025155,0.010576,1.139160,0.242188,0.005859,-0.569109,0.435745,0.537953,0.443675
19845,,9.957042,-0.213788,0.399310,-0.006829,0.021654,0.007740,1.141602,0.237793,0.006104,-0.569088,0.435741,0.537955,0.443704
19846,,9.958257,-0.183971,0.417768,-0.011558,0.025895,0.005415,1.137207,0.233154,0.001709,-0.569060,0.435740,0.537936,0.443764
19847,,9.924571,-0.166988,0.389462,-0.011683,0.023219,0.007761,1.141602,0.237793,0.003906,-0.569022,0.435765,0.537908,0.443822
19848,,9.954430,-0.156275,0.404451,-0.011680,0.023216,0.007761,1.139404,0.237793,0.001709,-0.568992,0.435776,0.537891,0.443870
19849,,9.982958,-0.176136,0.403483,-0.013566,0.026235,0.008953,1.139160,0.239990,0.001465,-0.568965,0.435796,0.537854,0.443930
19850,,9.932731,-0.197316,0.448926,-0.015306,0.026008,0.003512,1.141602,0.239990,-0.002930,-0.568925,0.435800,0.537831,0.444006
19851,,9.945803,-0.177675,0.448513,-0.016488,0.019563,0.009823,1.141357,0.242188,-0.005127,-0.568881,0.435836,0.537815,0.444045
19852,,9.940801,-0.179754,0.416566,-0.013880,0.025391,0.005271,1.139160,0.242188,0.001465,-0.568846,0.435841,0.537793,0.444111
19853,,9.905065,-0.150183,0.474900,-0.011457,0.015447,0.009499,1.139160,0.242188,0.001465,-0.568806,0.435863,0.537808,0.444123
19854,,9.941933,-0.151006,0.436285,-0.014592,0.016536,0.008628,1.139160,0.242188,0.001465,-0.568753,0.435900,0.537802,0.444162
19855,,9.948866,-0.163319,0.384843,-0.018483,0.013987,0.009071,1.136963,0.242188,-0.002930,-0.568690,0.435948,0.537802,0.444196
19856,,9.943935,-0.165520,0.351975,-0.001742,0.012303,0.009464,1.139404,0.237793,-0.000488,-0.568656,0.435959,0.537834,0.444189
19857,,9.957989,-0.236287,0.336411,0.014037,0.014736,0.009433,1.143799,0.237793,0.001709,-0.568666,0.435916,0.537903,0.444135
19858,,9.942484,-0.197827,0.338775,0.023414,0.016674,0.010005,1.139160,0.239990,0.003662,-0.568700,0.435848,0.537979,0.444068
19859,,9.958252,-0.117413,0.369958,0.026722,0.013039,0.010573,1.141357,0.242188,0.005859,-0.568729,0.435787,0.538065,0.443986
19860,,9.944972,-0.138890,0.374135,0.023747,0.017498,0.013683,1.141602,0.239990,0.001465,-0.568773,0.435725,0.538131,0.443909
19861,,9.931664,-0.160513,0.378816,0.017936,0.023182,0.013270,1.139160,0.242188,-0.005127,-0.568819,0.435669,0.538166,0.443863
19862,,9.944774,-0.141436,0.378414,0.016388,0.021119,0.013856,1.141602,0.237793,-0.000488,-0.568858,0.435621,0.538205,0.443814
19863,,9.934959,-0.192463,0.401181,0.013745,0.020500,0.016360,1.139160,0.239990,-0.005127,-0.568897,0.435586,0.538241,0.443754
19864,,9.946754,-0.204037,0.384388,0.026108,0.017965,0.013827,1.139404,0.237793,-0.005127,-0.568949,0.435518,0.538310,0.443672
19865,,9.919354,-0.155871,0.405738,0.027365,0.019887,0.015889,1.143799,0.242432,-0.000732,-0.569016,0.435444,0.538381,0.443572
19866,,9.949194,-0.145801,0.420476,0.024399,0.018436,0.014712,1.139160,0.239990,0.001465,-0.569066,0.435381,0.538443,0.443493
19867,,9.965806,-0.156017,0.437681,0.015019,0.016506,0.014135,1.139160,0.239990,0.001465,-0.569092,0.435346,0.538494,0.443432
19868,,9.977607,-0.167875,0.420808,0.005331,0.020357,0.020485,1.134766,0.239990,-0.000732,-0.569119,0.435350,0.538496,0.443392
19869,,9.930855,-0.172270,0.394529,0.006729,0.019040,0.015919,1.139160,0.239990,0.006104,-0.569137,0.435338,0.538518,0.443354
19870,,9.959355,-0.192893,0.393257,-0.007674,0.021229,0.015649,1.136963,0.242188,0.005859,-0.569128,0.435363,0.538499,0.443364
19871,,9.937774,-0.186972,0.345835,-0.002350,0.023150,0.016969,1.141357,0.244629,0.001465,-0.569137,0.435375,0.538478,0.443366
19872,,9.954345,-0.197588,0.363588,0.005483,0.023012,0.018136,1.136963,0.239990,-0.005127,-0.569166,0.435365,0.538478,0.443338
19873,,9.943633,-0.158561,0.400946,0.005465,0.028215,0.016086,1.139404,0.237793,-0.000488,-0.569211,0.435329,0.538479,0.443315
19874,,9.931584,-0.150076,0.422055,-0.000762,0.019991,0.018429,1.148438,0.238037,-0.002930,-0.569220,0.435345,0.538472,0.443296
19875,,9.946790,-0.191426,0.423591,-0.004358,0.023489,0.020498,1.134521,0.242188,0.001465,-0.569232,0.435375,0.538442,0.443287
19876,,9.922805,-0.172858,0.463185,-0.010001,0.020736,0.015494,1.139160,0.239990,-0.002930,-0.569216,0.435408,0.538419,0.443304
19877,,9.917955,-0.175909,0.430964,-0.009513,0.019026,0.018873,1.139160,0.244385,-0.005371,-0.569208,0.435444,0.538404,0.443296
19878,,9.944387,-0.137170,0.427877,-0.017657,0.024233,0.018299,1.139160,0.242188,0.001465,-0.569191,0.435498,0.538349,0.443332
19879,,9.922414,-0.178606,0.469345,-0.028113,0.018551,0.021674,1.136963,0.242188,0.001465,-0.569152,0.435590,0.538294,0.443359
19880,,9.958100,-0.211275,0.414988,-0.028432,0.017717,0.017993,1.141357,0.242188,-0.000732,-0.569093,0.435688,0.538234,0.443411
19881,,9.941348,-0.204307,0.401214,-0.020601,0.017573,0.019167,1.141602,0.235596,-0.002686,-0.569058,0.435760,0.538197,0.443429
19882,,9.944579,-0.235442,0.420956,-0.014814,0.017085,0.017547,1.137207,0.235352,-0.002686,-0.569027,0.435819,0.538170,0.443445
19883,,9.901999,-0.148047,0.442376,-0.014193,0.012147,0.014298,1.139404,0.235596,0.001709,-0.568973,0.435887,0.538164,0.443455
19884,,9.945744,-0.208281,0.439900,-0.021217,0.016604,0.018133,1.141602,0.237793,-0.000488,-0.568927,0.435968,0.538122,0.443485
19885,,9.958956,-0.189705,0.438677,-0.022942,0.011187,0.014734,1.141602,0.237793,-0.000488,-0.568851,0.436065,0.538095,0.443520
19886,,9.954183,-0.192761,0.405850,-0.026988,0.017078,0.019750,1.143799,0.237793,0.006104,-0.568797,0.436165,0.538036,0.443562
19887,,9.924160,-0.205927,0.394270,-0.022934,0.011180,0.014732,1.141357,0.242188,0.001465,-0.568721,0.436262,0.538006,0.443601
19888,,9.940697,-0.216489,0.410837,-0.024647,0.011657,0.015615,1.139160,0.242188,0.001465,-0.568649,0.436357,0.537976,0.443636
19889,,9.935945,-0.219275,0.377914,-0.014330,0.014662,0.014599,1.136963,0.239990,-0.005127,-0.568609,0.436406,0.537970,0.443646
19890,,9.979119,-0.189140,0.389668,-0.011827,0.012604,0.014447,1.141602,0.239990,-0.002930,-0.568565,0.436459,0.537969,0.443653
19891,,9.950486,-0.171415,0.394301,-0.022927,0.016375,0.012686,1.143555,0.246826,0.001221,-0.568508,0.436522,0.537948,0.443689
19892,,9.926383,-0.226025,0.313800,-0.025571,0.015755,0.015181,1.141846,0.228760,-0.004639,-0.568443,0.436609,0.537905,0.443737
19893,,9.959486,-0.245526,0.346459,-0.024788,0.019380,0.013870,1.141602,0.239990,0.006104,-0.568386,0.436686,0.537858,0.443792
19894,,9.942794,-0.237793,0.332964,-0.006981,0.021426,0.010364,1.141602,0.239990,0.001465,-0.568367,0.436695,0.537851,0.443816
19895,,9.956049,-0.218640,0.332194,-0.006823,0.013685,0.012101,1.141357,0.244629,0.001465,-0.568330,0.436728,0.537860,0.443821
19896,,9.938065,-0.168004,0.421625,-0.008843,0.019228,0.013589,1.141602,0.239990,-0.000732,-0.568308,0.436755,0.537848,0.443836
19897,,9.948538,-0.209906,0.388512,-0.010099,0.017312,0.011521,1.132324,0.239746,-0.005127,-0.568278,0.436777,0.537852,0.443848
19898,,9.959023,-0.251614,0.355281,-0.004322,0.016830,0.009909,1.139160,0.242188,0.001465,-0.568252,0.436787,0.537865,0.443857
19899,,9.949747,-0.181646,0.408124,0.004125,0.017641,0.012130,1.143799,0.239990,-0.000732,-0.568257,0.436767,0.537902,0.443825
19900,,9.974970,-0.172557,0.388867,-0.001191,0.020933,0.008751,1.141602,0.239990,0.001465,-0.568246,0.436756,0.537913,0.443837
19901,,9.946345,-0.154412,0.393953,-0.010092,0.017307,0.011517,1.139160,0.239990,-0.000732,-0.568211,0.436786,0.537910,0.443855
19902,,9.944865,-0.186102,0.379536,-0.016644,0.019361,0.012395,1.136719,0.244385,-0.002930,-0.568170,0.436832,0.537883,0.443895
19903,,9.961326,-0.196372,0.396917,-0.014926,0.018880,0.011514,1.141602,0.239990,-0.005127,-0.568136,0.436860,0.537876,0.443919
19904,,9.919333,-0.198802,0.404382,-0.005700,0.018112,0.014470,1.141357,0.242188,-0.000732,-0.568120,0.436883,0.537873,0.443920
19905,,9.945976,-0.159723,0.401071,-0.002424,0.014480,0.015050,1.136963,0.242188,0.001465,-0.568108,0.436900,0.537896,0.443892
19906,,9.945891,-0.161113,0.402640,-0.002266,0.017151,0.012708,1.139160,0.239990,-0.000732,-0.568093,0.436911,0.537907,0.443888
19907,,9.939854,-0.194096,0.353569,-0.001492,0.010371,0.015477,1.139160,0.239990,0.001465,-0.568071,0.436936,0.537939,0.443852
19908,,9.956318,-0.204574,0.370375,-0.001483,0.015572,0.013438,1.139160,0.239990,-0.002930,-0.568055,0.436950,0.537954,0.443840
19909,,9.974160,-0.184663,0.403801,0.009937,0.017809,0.016855,1.139404,0.237793,-0.002686,-0.568079,0.436933,0.537986,0.443787
19910,,9.959022,-0.219916,0.286656,0.008984,0.016039,0.012140,1.139160,0.239990,-0.000732,-0.568084,0.436913,0.538026,0.443751
19911,,9.939514,-0.199753,0.359906,0.015716,0.017321,0.015250,1.141357,0.242188,-0.000732,-0.568116,0.436879,0.538074,0.443687
19912,,9.938016,-0.231577,0.345494,0.016656,0.018414,0.013638,1.130127,0.241943,0.003662,-0.568147,0.436836,0.538121,0.443631
19913,,9.954442,-0.241739,0.362934,0.011495,0.019179,0.009950,1.136719,0.244385,0.001465,-0.568167,0.436787,0.538170,0.443595
19914,,9.925843,-0.223495,0.367915,0.012276,0.017601,0.010681,1.141357,0.242188,0.001465,-0.568180,0.436750,0.538216,0.443558
19915,,9.969058,-0.193220,0.380447,0.007765,0.019993,0.014352,1.141602,0.239990,0.001465,-0.568203,0.436721,0.538245,0.443521
19916,,9.932840,-0.147111,0.333380,-0.001456,0.020766,0.011387,1.139404,0.235596,-0.000488,-0.568197,0.436718,0.538251,0.443526
19917,,9.958270,-0.155045,0.419188,-0.006937,0.016192,0.012384,1.136963,0.237793,0.001709,-0.568165,0.436751,0.538250,0.443536
19918,,9.932760,-0.166487,0.442135,-0.015347,0.021260,0.014433,1.139404,0.235596,-0.000488,-0.568136,0.436794,0.538216,0.443571
19919,,9.955239,-0.218696,0.390743,-0.022219,0.022507,0.011620,1.136963,0.237793,0.001709,-0.568085,0.436856,0.538164,0.443640
19920,,9.932749,-0.242489,0.326808,-0.014257,0.019820,0.012519,1.143799,0.237793,-0.002930,-0.568051,0.436894,0.538141,0.443674
19921,,9.935470,-0.182784,0.361340,-0.002219,0.022327,0.010658,1.143799,0.239990,0.001465,-0.568042,0.436894,0.538139,0.443687
19922,,9.936781,-0.153446,0.379731,-0.010967,0.021384,0.011064,1.141357,0.244629,-0.002930,-0.568016,0.436916,0.538122,0.443720
19923,,9.948693,-0.164830,0.363284,-0.029384,0.023603,0.011444,1.141357,0.242188,-0.000732,-0.567960,0.436979,0.538064,0.443799
19924,,9.935166,-0.186389,0.367806,-0.030173,0.019974,0.012749,1.139160,0.242188,0.001465,-0.567892,0.437063,0.538005,0.443875
19925,,9.980017,-0.216215,0.382342,-0.026559,0.022346,0.014977,1.136963,0.239990,0.003662,-0.567846,0.437131,0.537948,0.443935
19926,,9.960409,-0.179141,0.351104,-0.016559,0.024524,0.010321,1.141602,0.239990,-0.005127,-0.567815,0.437160,0.537912,0.443991
19927,,9.943846,-0.171264,0.337910,-0.019207,0.023902,0.012806,1.141357,0.242188,-0.000732,-0.567783,0.437202,0.537869,0.444042
19928,,9.928897,-0.223166,0.326282,-0.018121,0.022468,0.010893,1.136963,0.242188,-0.000732,-0.567743,0.437242,0.537834,0.444097
19929,,9.942239,-0.204039,0.326212,-0.004682,0.024353,0.010813,1.139160,0.242188,0.001465,-0.567743,0.437230,0.537832,0.444111
19930,,9.893996,-0.164497,0.403001,0.004042,0.020094,0.012453,1.136963,0.237793,0.001709,-0.567749,0.437215,0.537849,0.444096
19931,,9.940223,-0.163890,0.433691,-0.001894,0.017903,0.016385,1.141602,0.239990,0.001465,-0.567745,0.437233,0.537851,0.444081
19932,,9.940115,-0.165366,0.435601,-0.009530,0.020730,0.012831,1.134521,0.242188,-0.000732,-0.567724,0.437257,0.537836,0.444104
19933,,9.923585,-0.157538,0.421780,-0.011592,0.015204,0.012062,1.139160,0.239990,-0.000732,-0.567685,0.437292,0.537838,0.444116
19934,,9.950558,-0.208618,0.403926,-0.011899,0.015055,0.014706,1.134766,0.237549,0.003906,-0.567648,0.437341,0.537829,0.444127
19935,,9.931078,-0.171581,0.371948,-0.008611,0.016623,0.013259,1.141357,0.242188,0.003662,-0.567617,0.437375,0.537824,0.444138
19936,,9.940088,-0.153911,0.336873,-0.012835,0.013954,0.016313,1.136963,0.237549,0.006104,-0.567578,0.437433,0.537813,0.444145
19937,,9.952062,-0.165717,0.319680,-0.013604,0.015527,0.015580,1.145752,0.246826,0.001221,-0.567538,0.437492,0.537790,0.444166
19938,,9.941453,-0.216986,0.341462,-0.009853,0.015371,0.017510,1.136963,0.242188,-0.005127,-0.567512,0.437541,0.537779,0.444164
19939,,9.949056,-0.230018,0.290026,0.002780,0.013628,0.018746,1.135010,0.228516,-0.000244,-0.567521,0.437547,0.537813,0.444106
19940,,9.954754,-0.200068,0.342179,0.012950,0.018481,0.011766,1.143799,0.239990,0.003662,-0.567540,0.437509,0.537856,0.444066
19941,,9.934911,-0.180104,0.415292,0.006840,0.013619,0.018033,1.141602,0.237793,-0.002686,-0.567538,0.437534,0.537871,0.444027
19942,,9.956005,-0.172845,0.361871,0.005030,0.021815,0.017175,1.143799,0.239990,-0.002930,-0.567561,0.437526,0.537875,0.444000
19943,,9.942415,-0.194845,0.366068,0.000306,0.015675,0.018885,1.141602,0.239990,-0.000732,-0.567561,0.437551,0.537884,0.443964
19944,,9.958704,-0.205794,0.383372,-0.003575,0.018352,0.017256,1.139160,0.239990,-0.000732,-0.567557,0.437575,0.537879,0.443952
19945,,9.966327,-0.218785,0.332532,-0.008533,0.022456,0.017538,1.141357,0.242188,-0.000732,-0.567554,0.437604,0.537853,0.443959
19946,,9.960465,-0.161789,0.298880,-0.016333,0.022618,0.016315,1.139160,0.242188,-0.000732,-0.567531,0.437652,0.537809,0.443994
19947,,9.912094,-0.212901,0.360864,-0.010871,0.021979,0.017374,1.148438,0.240234,0.001465,-0.567525,0.437681,0.537786,0.444001
19948,,9.961689,-0.224916,0.304953,-0.003523,0.023534,0.015221,1.139160,0.242188,-0.000732,-0.567530,0.437688,0.537770,0.444007
19949,,9.980817,-0.175078,0.355860,-0.005173,0.029852,0.020382,1.134766,0.237549,-0.000488,-0.567561,0.437697,0.537724,0.444013
19950,,9.934452,-0.178756,0.329766,-0.006126,0.028102,0.015664,1.141602,0.237793,-0.002686,-0.567574,0.437703,0.537689,0.444034
19951,,9.937161,-0.209735,0.350350,0.001813,0.025409,0.016586,1.141602,0.235596,-0.000488,-0.567598,0.437696,0.537678,0.444023
19952,,9.962641,-0.201350,0.332091,0.003396,0.027449,0.016017,1.143799,0.242432,-0.002930,-0.567630,0.437677,0.537665,0.444016
19953,,9.920552,-0.203871,0.340362,-0.000285,0.033444,0.018369,1.134521,0.242188,-0.000732,-0.567676,0.437662,0.537624,0.444022
19954,,9.940977,-0.213923,0.393428,0.001252,0.030289,0.019835,1.139160,0.242188,-0.002930,-0.567720,0.437653,0.537590,0.444017
19955,,9.975759,-0.186521,0.339060,-0.002177,0.030595,0.015254,1.143799,0.237793,-0.000488,-0.567755,0.437627,0.537572,0.444020
19956,,9.908029,-0.199068,0.367999,0.006848,0.027120,0.020597,1.139404,0.235596,-0.002686,-0.567804,0.437611,0.537557,0.443990
19957,,9.952614,-0.229499,0.383486,0.001709,0.027906,0.016886,1.143799,0.239990,-0.000732,-0.567833,0.437604,0.537536,0.443986
19958,,9.956676,-0.230141,0.420427,0.016047,0.025664,0.017280,1.141602,0.239990,-0.000732,-0.567891,0.437556,0.537553,0.443938
19959,,9.929576,-0.182060,0.442119,0.010412,0.023631,0.018550,1.144043,0.235596,0.001709,-0.567937,0.437529,0.537565,0.443892
19960,,9.950913,-0.174824,0.389573,0.003433,0.027418,0.016010,1.137207,0.235352,-0.002686,-0.567969,0.437510,0.537553,0.443885
19961,,9.925112,-0.186317,0.412886,-0.008167,0.022564,0.014868,1.141846,0.230957,0.001953,-0.567956,0.437541,0.537525,0.443905
19962,,9.932933,-0.199076,0.362283,-0.008164,0.022561,0.014867,1.139160,0.239990,-0.002930,-0.567947,0.437562,0.537503,0.443922
19963,,9.980203,-0.258724,0.395292,-0.006127,0.022873,0.017677,1.134766,0.235352,0.001709,-0.567945,0.437594,0.537473,0.443929
19964,,9.936861,-0.201211,0.401036,-0.007844,0.022707,0.012224,1.139160,0.239990,0.001465,-0.567932,0.437607,0.537457,0.443953
19965,,9.946172,-0.183395,0.366792,-0.013609,0.023196,0.013792,1.132324,0.241943,-0.000732,-0.567910,0.437641,0.537422,0.443989
19966,,9.944594,-0.215284,0.352998,-0.006056,0.028051,0.015641,1.134766,0.237549,-0.000488,-0.567922,0.437647,0.537387,0.444010
19967,,9.964864,-0.224991,0.405447,-0.006437,0.022068,0.013996,1.139160,0.239990,-0.000732,-0.567920,0.437653,0.537382,0.444013
19968,,9.918641,-0.228136,0.378513,-0.011251,0.023652,0.013959,1.136963,0.237793,-0.002686,-0.567905,0.437678,0.537351,0.444043
19969,,9.919982,-0.199167,0.397067,-0.008777,0.021597,0.013825,1.134766,0.235352,-0.000488,-0.567894,0.437696,0.537340,0.444054
19970,,9.957735,-0.200710,0.360007,-0.004528,0.024250,0.010788,1.139160,0.239990,-0.000732,-0.567889,0.437692,0.537330,0.444077
19971,,9.927787,-0.212931,0.348769,-0.000973,0.021411,0.015071,1.139160,0.239990,-0.000732,-0.567894,0.437695,0.537330,0.444067
19972,,9.957519,-0.203382,0.364461,-0.007818,0.022685,0.012219,1.139404,0.233154,0.006348,-0.567881,0.437708,0.537314,0.444090
19973,,9.957404,-0.204609,0.366884,0.000811,0.026113,0.012168,1.136963,0.237793,-0.000488,-0.567891,0.437697,0.537301,0.444104
19974,,9.943686,-0.225937,0.371437,0.001059,0.021078,0.011561,1.141602,0.235596,0.003906,-0.567891,0.437687,0.537310,0.444103
19975,,9.954572,-0.177653,0.353573,-0.002481,0.024549,0.013598,1.139160,0.239990,0.003662,-0.567895,0.437691,0.537294,0.444115
19976,,9.957068,-0.208428,0.373790,-0.008759,0.021581,0.013817,1.136963,0.237793,0.003906,-0.567880,0.437713,0.537275,0.444135
19977,,9.939284,-0.230855,0.343995,-0.006215,0.024711,0.011650,1.139160,0.242188,0.003662,-0.567873,0.437717,0.537256,0.444162
19978,,9.927012,-0.221717,0.364977,0.001900,0.024678,0.010262,1.139160,0.239990,-0.000732,-0.567882,0.437692,0.537260,0.444169
19979,,9.966300,-0.192750,0.344734,0.004766,0.028595,0.011777,1.139404,0.237793,-0.000488,-0.567915,0.437648,0.537264,0.444167
19980,,9.970216,-0.192890,0.381619,0.005011,0.023562,0.011170,1.134766,0.239990,0.001465,-0.567930,0.437620,0.537276,0.444161
19981,,9.944295,-0.203949,0.404849,0.005531,0.027015,0.012512,1.141602,0.239990,-0.000732,-0.567960,0.437583,0.537281,0.444152
19982,,9.957794,-0.184902,0.405379,0.005851,0.027165,0.009870,1.141602,0.235596,0.001709,-0.567984,0.437541,0.537288,0.444156
19983,,9.931841,-0.195945,0.428920,0.003709,0.030001,0.013678,1.141357,0.242188,-0.000732,-0.568017,0.437512,0.537273,0.444160
19984,,9.926246,-0.228562,0.381239,-0.004721,0.029243,0.011378,1.141846,0.233398,-0.002686,-0.568026,0.437500,0.537247,0.444192
19985,,9.937229,-0.180073,0.363833,-0.003526,0.025307,0.009171,1.136963,0.239990,0.001465,-0.568023,0.437487,0.537243,0.444213
19986,,9.967988,-0.230136,0.381670,-0.000219,0.027493,0.014066,1.141602,0.235596,-0.000488,-0.568043,0.437473,0.537226,0.444222
19987,,9.940959,-0.181236,0.403368,0.000855,0.025439,0.005840,1.134766,0.237549,0.001709,-0.568041,0.437440,0.537236,0.444244
19988,,9.943336,-0.211585,0.424044,0.001380,0.029521,0.013503,1.136963,0.237793,0.003906,-0.568069,0.437415,0.537218,0.444255
19989,,9.944650,-0.182276,0.442964,-0.001687,0.022305,0.008001,1.141602,0.237793,0.006104,-0.568058,0.437403,0.537224,0.444274
19990,,9.909340,-0.225432,0.381240,-0.000642,0.029207,0.010685,1.136719,0.244385,-0.000732,-0.568074,0.437377,0.537209,0.444297
19991,,9.940453,-0.185269,0.413860,-0.006811,0.023736,0.010590,1.136963,0.239990,0.001465,-0.568065,0.437375,0.537201,0.444320
19992,,9.952549,-0.196646,0.397718,-0.010865,0.023752,0.011276,1.137207,0.235352,-0.000488,-0.568046,0.437391,0.537177,0.444357
19993,,9.962179,-0.178716,0.363687,-0.010224,0.024688,0.012315,1.136963,0.239990,0.006104,-0.568033,0.437408,0.537152,0.444388
19994,,9.945948,-0.170685,0.350193,-0.010106,0.022173,0.012012,1.139160,0.242188,-0.002930,-0.568013,0.437428,0.537133,0.444417
19995,,9.932173,-0.192064,0.354751,-0.010331,0.027193,0.012617,1.144043,0.235596,-0.000488,-0.568011,0.437432,0.537105,0.444449
19996,,9.942841,-0.234131,0.322358,-0.000278,0.022281,0.016102,1.141602,0.235596,-0.000488,-0.568022,0.437435,0.537098,0.444440
19997,,9.948052,-0.204078,0.375476,0.005904,0.027114,0.009880,1.139160,0.239990,0.006104,-0.568041,0.437402,0.537101,0.444445
19998,,9.931825,-0.195921,0.362300,0.008686,0.025843,0.013436,1.141602,0.239990,0.003662,-0.568074,0.437365,0.537110,0.444428
19999,,9.933148,-0.166891,0.381188,0.011789,0.024727,0.014353,1.141602,0.235596,0.003906,-0.568113,0.437324,0.537125,0.444400
20000,,9.963769,-0.217195,0.399084,0.013390,0.026754,0.013793,1.136963,0.242188,0.001465,-0.568161,0.437272,0.537141,0.444371
20001,,9.929061,-0.170573,0.352020,0.021301,0.024045,0.014767,1.144043,0.235596,0.003906,-0.568220,0.437207,0.537181,0.444311
20002,,9.945024,-0.181278,0.370515,0.018735,0.028601,0.015190,1.143555,0.244629,-0.000732,-0.568287,0.437140,0.537200,0.444268
20003,,9.927368,-0.203986,0.341191,0.014361,0.028462,0.018509,1.136963,0.237793,0.003906,-0.568353,0.437093,0.537206,0.444224
20004,,9.929611,-0.234772,0.362062,0.017680,0.029380,0.010769,1.139404,0.237793,-0.000488,-0.568410,0.437015,0.537231,0.444198
20005,,9.929457,-0.236127,0.365375,0.012652,0.036614,0.017628,1.143799,0.239990,0.003662,-0.568490,0.436955,0.537209,0.444180
20006,,9.943006,-0.217513,0.366548,0.015020,0.028757,0.013227,1.139404,0.235596,-0.000488,-0.568545,0.436893,0.537224,0.444153
20007,,9.929162,-0.238825,0.371595,0.011927,0.029867,0.012305,1.146240,0.237793,0.003906,-0.568592,0.436838,0.537230,0.444139
20008,,9.938954,-0.220991,0.338306,0.019621,0.032168,0.013889,1.141602,0.237793,0.006104,-0.568668,0.436756,0.537245,0.444105
20009,,9.966249,-0.181992,0.337276,0.024759,0.030721,0.011312,1.143799,0.237793,0.001709,-0.568740,0.436665,0.537272,0.444068
20010,,9.915562,-0.172267,0.397702,0.028504,0.030535,0.013274,1.139404,0.237793,0.003906,-0.568830,0.436561,0.537312,0.444008
20011,,9.943736,-0.193094,0.398083,0.029366,0.026450,0.013715,1.141602,0.239990,-0.000732,-0.568908,0.436469,0.537362,0.443938
20012,,9.922753,-0.172566,0.472046,0.030231,0.030040,0.012413,1.143799,0.237793,0.001709,-0.568998,0.436358,0.537409,0.443875
20013,,9.908872,-0.193918,0.476902,0.019650,0.024468,0.015623,1.141602,0.237793,0.001709,-0.569058,0.436298,0.537444,0.443814
20014,,9.944194,-0.256637,0.407554,0.029812,0.016405,0.012523,1.146240,0.237793,0.006104,-0.569110,0.436219,0.537529,0.443722
20015,,9.891193,-0.217332,0.448645,0.034741,0.019966,0.010546,1.145996,0.240234,-0.002930,-0.569175,0.436120,0.537613,0.443635
20016,,9.920837,-0.207542,0.464083,0.037838,0.011170,0.013220,1.141602,0.237793,-0.002686,-0.569232,0.436031,0.537728,0.443509
20017,,9.949067,-0.228201,0.462677,0.041375,0.007691,0.011210,1.143799,0.239990,0.003662,-0.569286,0.435932,0.537874,0.443360
20018,,9.979350,-0.128123,0.492230,0.033156,0.017924,0.011099,1.141602,0.235596,0.001709,-0.569347,0.435836,0.537965,0.443266
20019,,9.926140,-0.132958,0.395444,0.011654,0.013704,0.012091,1.143799,0.242432,0.005859,-0.569348,0.435820,0.538013,0.443222
20020,,9.939175,-0.204258,0.380264,0.016468,0.012099,0.012162,1.139160,0.239990,0.003662,-0.569359,0.435787,0.538081,0.443158
20021,,9.951402,-0.215938,0.363216,0.023207,0.013299,0.015350,1.139404,0.237793,-0.000488,-0.569395,0.435739,0.538154,0.443069
20022,,9.975148,-0.178284,0.326054,0.028245,0.014347,0.013077,1.141602,0.239990,0.001465,-0.569440,0.435671,0.538240,0.442975
20023,,9.982414,-0.177192,0.396486,0.027297,0.020925,0.012919,1.141602,0.237793,-0.000488,-0.569501,0.435589,0.538307,0.442895
20024,,9.994600,-0.188827,0.380714,0.019824,0.029593,0.013543,1.141357,0.242188,0.003662,-0.569569,0.435512,0.538330,0.442856
20025,,9.924132,-0.170787,0.390600,0.016730,0.030709,0.012613,1.139404,0.235596,0.003906,-0.569632,0.435437,0.538346,0.442828
20026,,9.952276,-0.191749,0.391160,0.011801,0.027151,0.014590,1.139404,0.237793,-0.002686,-0.569679,0.435391,0.538356,0.442802
20027,,9.970275,-0.231973,0.428100,-0.003185,0.029164,0.019348,1.136963,0.242188,0.001465,-0.569706,0.435402,0.538313,0.442808
20028,,9.954164,-0.224221,0.415028,0.001869,0.029571,0.010761,1.143799,0.237793,-0.000488,-0.569729,0.435368,0.538302,0.442825
20029,,9.949674,-0.166914,0.381764,0.000476,0.030838,0.015292,1.141602,0.237793,0.003906,-0.569765,0.435344,0.538280,0.442830
20030,,9.927026,-0.176781,0.439495,-0.000805,0.028966,0.013213,1.143799,0.239990,0.001465,-0.569786,0.435326,0.538259,0.442845
20031,,9.951554,-0.199019,0.405628,-0.008838,0.026534,0.014256,1.139160,0.242188,0.003662,-0.569784,0.435343,0.538223,0.442876
20032,,9.935484,-0.191227,0.392383,-0.006578,0.029482,0.014734,1.139404,0.237793,-0.000488,-0.569797,0.435344,0.538185,0.442904
20033,,9.938922,-0.191587,0.429468,-0.001021,0.026300,0.015560,1.139404,0.235596,0.001709,-0.569818,0.435335,0.538171,0.442903
20034,,9.938773,-0.193153,0.432204,-0.001116,0.028800,0.015852,1.141602,0.239990,0.003662,-0.569843,0.435325,0.538144,0.442912
20035,,9.910361,-0.175058,0.437228,-0.002726,0.026779,0.016411,1.143799,0.237793,-0.000488,-0.569859,0.435331,0.538116,0.442921
20036,,9.934924,-0.197558,0.403270,-0.005077,0.026328,0.016223,1.143799,0.242432,0.001465,-0.569870,0.435339,0.538087,0.442934
20037,,9.950680,-0.208436,0.421989,-0.005814,0.027894,0.015475,1.141357,0.242188,-0.000732,-0.569885,0.435341,0.538058,0.442948
20038,,9.966425,-0.219317,0.440691,-0.007425,0.025874,0.016034,1.139404,0.233154,0.006348,-0.569889,0.435356,0.538026,0.442967
20039,,9.934497,-0.202353,0.411341,0.001263,0.029226,0.016039,1.143799,0.237793,0.001709,-0.569920,0.435343,0.538000,0.442971
20040,,9.939311,-0.172363,0.464646,-0.002705,0.026760,0.016409,1.136963,0.242188,-0.002930,-0.569938,0.435344,0.537975,0.442978
20041,,9.923895,-0.224454,0.452983,-0.009674,0.022917,0.015549,1.139404,0.237793,-0.000488,-0.569933,0.435364,0.537956,0.442988
20042,,9.963772,-0.196549,0.432908,-0.008383,0.024778,0.017628,1.143799,0.237793,-0.002930,-0.569936,0.435389,0.537921,0.443002
20043,,9.932476,-0.239485,0.405365,-0.009212,0.028844,0.017173,1.143799,0.239990,0.001465,-0.569948,0.435404,0.537879,0.443021
20044,,9.930314,-0.211734,0.389670,-0.001432,0.020327,0.013933,1.141602,0.235596,0.001709,-0.569946,0.435409,0.537880,0.443018
20045,,9.947504,-0.191922,0.424186,0.004163,0.024798,0.013008,1.141602,0.239990,0.003662,-0.569965,0.435389,0.537883,0.443011
20046,,9.961205,-0.173163,0.424808,-0.008539,0.029139,0.011893,1.146240,0.237793,-0.000488,-0.569967,0.435389,0.537847,0.443052
20047,,9.956152,-0.206171,0.377113,-0.019357,0.028619,0.015657,1.136963,0.242188,0.003662,-0.569952,0.435432,0.537783,0.443107
20048,,9.929784,-0.217215,0.400033,-0.014123,0.024658,0.012816,1.144043,0.235596,-0.000488,-0.569931,0.435460,0.537746,0.443150
20049,,9.931638,-0.247834,0.420593,-0.007696,0.025059,0.012349,1.141357,0.242188,-0.002930,-0.569927,0.435466,0.537727,0.443173
20050,,9.943379,-0.199637,0.403000,-0.012164,0.026819,0.009620,1.143799,0.239990,0.005859,-0.569909,0.435475,0.537695,0.443225
20051,,9.945221,-0.230090,0.423620,-0.012401,0.024163,0.011964,1.134766,0.237549,0.003906,-0.569894,0.435490,0.537674,0.443256
20052,,9.903014,-0.231513,0.430157,-0.010686,0.023675,0.011115,1.143799,0.237793,0.003906,-0.569874,0.435506,0.537651,0.443293
20053,,9.943014,-0.203108,0.410222,-0.008327,0.024116,0.011307,1.139404,0.235596,0.003906,-0.569860,0.435519,0.537630,0.443325
20054,,9.927091,-0.194826,0.396416,-0.009612,0.022255,0.009224,1.141602,0.237793,0.001709,-0.569835,0.435530,0.537618,0.443361
20055,,9.926984,-0.195784,0.398631,-0.007254,0.022696,0.009417,1.139404,0.235596,0.003906,-0.569814,0.435540,0.537606,0.443393
20056,,9.964137,-0.228049,0.345960,-0.000005,0.019031,0.009411,1.141602,0.239990,0.006104,-0.569801,0.435531,0.537623,0.443396
20057,,9.967415,-0.227878,0.382377,0.008686,0.022373,0.009437,1.139160,0.239990,0.003662,-0.569814,0.435496,0.537646,0.443387
20058,,9.956335,-0.187862,0.419032,0.017557,0.020719,0.008878,1.144043,0.231201,0.006348,-0.569843,0.435432,0.537699,0.443347
20059,,9.940442,-0.179424,0.405085,0.016493,0.022130,0.010766,1.134766,0.239990,-0.000732,-0.569871,0.435387,0.537731,0.443318
20060,,9.954211,-0.160430,0.405267,0.011784,0.021241,0.010377,1.146240,0.237793,0.001709,-0.569892,0.435342,0.537767,0.443291
20061,,9.928257,-0.230601,0.429349,0.003428,0.018054,0.007710,1.141602,0.237793,0.003906,-0.569883,0.435319,0.537804,0.443281
20062,,9.952574,-0.192818,0.392941,0.000962,0.020726,0.014123,1.141357,0.242188,0.001465,-0.569887,0.435317,0.537809,0.443271
20063,,9.926158,-0.203420,0.415038,0.010589,0.016881,0.008003,1.139404,0.237793,0.001709,-0.569891,0.435277,0.537863,0.443241
20064,,9.968159,-0.204123,0.412623,0.007900,0.016283,0.010444,1.141357,0.242188,0.001465,-0.569890,0.435255,0.537904,0.443213
20065,,9.953755,-0.165306,0.414427,0.007169,0.017850,0.009695,1.136963,0.237793,0.001709,-0.569894,0.435225,0.537945,0.443187
20066,,9.939772,-0.186351,0.418199,0.006837,0.017694,0.012331,1.141602,0.239990,-0.000732,-0.569899,0.435208,0.537976,0.443161
20067,,9.952121,-0.197805,0.401825,0.008154,0.018928,0.008099,1.141602,0.235596,0.006104,-0.569903,0.435171,0.538020,0.443139
20068,,9.936289,-0.189379,0.387295,0.013439,0.013096,0.011293,1.141602,0.239990,-0.002930,-0.569908,0.435142,0.538080,0.443087
20069,,9.918610,-0.151908,0.354651,0.012203,0.019499,0.013763,1.141602,0.239990,0.001465,-0.569931,0.435114,0.538113,0.443046
20070,,9.922219,-0.211685,0.392452,0.017598,0.010551,0.010353,1.141602,0.237793,0.001709,-0.569936,0.435076,0.538192,0.442980
20071,,9.925450,-0.211484,0.427738,0.015327,0.007613,0.009865,1.141602,0.237793,-0.002686,-0.569927,0.435052,0.538276,0.442913
20072,,9.981387,-0.192360,0.422672,0.015890,0.011034,0.011197,1.139404,0.235596,-0.000488,-0.569932,0.435021,0.538348,0.442851
20073,,9.921670,-0.154947,0.393360,0.005478,0.008192,0.012007,1.136963,0.239990,-0.000732,-0.569906,0.435032,0.538404,0.442805
20074,,9.925263,-0.214727,0.430450,0.000762,0.007312,0.011614,1.141602,0.239990,0.001465,-0.569869,0.435053,0.538452,0.442774
20075,,9.946834,-0.237861,0.360584,0.005084,0.009912,0.008620,1.139160,0.244385,0.003662,-0.569844,0.435044,0.538514,0.442739
20076,,9.946424,-0.179110,0.359575,0.010197,0.009068,0.012400,1.143799,0.242432,0.003662,-0.569833,0.435037,0.538576,0.442684
20077,,9.965020,-0.128655,0.409063,0.020698,0.009409,0.011300,1.139160,0.242188,-0.000732,-0.569848,0.434987,0.538669,0.442600
20078,,9.951045,-0.149815,0.412025,0.004417,0.009603,0.013891,1.136963,0.237793,-0.005127,-0.569830,0.434999,0.538714,0.442557
20079,,9.944775,-0.213227,0.346548,0.014752,0.014931,0.013372,1.139160,0.242188,0.001465,-0.569852,0.434961,0.538778,0.442489
20080,,9.939977,-0.246005,0.297321,0.029495,0.010228,0.011047,1.136963,0.239990,0.003662,-0.569884,0.434892,0.538882,0.442388
20081,,9.961817,-0.194356,0.381540,0.035430,0.015447,0.013811,1.141602,0.237793,-0.000488,-0.569951,0.434798,0.538982,0.442272
20082,,9.964672,-0.134738,0.415546,0.036731,0.017294,0.015892,1.143555,0.249023,-0.005371,-0.570028,0.434706,0.539072,0.442154
20083,,9.992749,-0.156050,0.415191,0.016143,0.014282,0.015159,1.141602,0.239990,-0.005127,-0.570059,0.434664,0.539142,0.442071
20084,,10.002151,-0.229065,0.366733,0.006295,0.025003,0.015811,1.144043,0.235596,-0.000488,-0.570090,0.434641,0.539143,0.442052
20085,,9.970626,-0.211926,0.337119,0.000686,0.030682,0.015239,1.136963,0.237793,-0.005127,-0.570122,0.434624,0.539117,0.442058
20086,,9.942606,-0.253344,0.343941,0.008663,0.025431,0.016008,1.141602,0.235596,-0.000488,-0.570160,0.434595,0.539121,0.442033
20087,,9.951481,-0.206631,0.292253,0.008452,0.032286,0.010558,1.141602,0.239990,-0.005127,-0.570203,0.434540,0.539118,0.442036
20088,,9.953082,-0.237148,0.313717,0.002333,0.032674,0.014680,1.141602,0.239990,-0.002930,-0.570244,0.434509,0.539090,0.442047
20089,,9.942168,-0.257138,0.353640,0.003502,0.038883,0.011023,1.139160,0.239990,0.001465,-0.570300,0.434445,0.539066,0.442067
20090,,9.940301,-0.228901,0.339268,0.005222,0.038387,0.010180,1.139160,0.242188,-0.000732,-0.570353,0.434381,0.539038,0.442096
20091,,9.955578,-0.179479,0.357189,0.012390,0.037194,0.010490,1.136963,0.239990,-0.002930,-0.570423,0.434293,0.539036,0.442095
20092,,9.960037,-0.148807,0.411405,0.008323,0.037244,0.011131,1.139404,0.237793,0.001709,-0.570481,0.434225,0.539016,0.442110
20093,,9.931924,-0.189625,0.419323,0.006152,0.041938,0.008867,1.141602,0.239990,0.001465,-0.570544,0.434146,0.538987,0.442143
20094,,9.933395,-0.219954,0.441573,0.007270,0.038647,0.013011,1.136963,0.237793,0.003906,-0.570608,0.434083,0.538957,0.442158
20095,,9.934661,-0.190405,0.461471,0.014471,0.036830,0.007015,1.143799,0.237793,0.001709,-0.570668,0.433990,0.538959,0.442169
20096,,9.960979,-0.181807,0.444960,0.014213,0.034183,0.009363,1.136963,0.239990,-0.002930,-0.570727,0.433908,0.538965,0.442166
20097,,9.945191,-0.173387,0.432235,0.010068,0.036725,0.010285,1.134766,0.239990,-0.000732,-0.570787,0.433833,0.538956,0.442173
20098,,9.918504,-0.183813,0.455798,0.007445,0.033645,0.012432,1.139160,0.239990,0.001465,-0.570837,0.433779,0.538942,0.442179
20099,,9.944861,-0.175653,0.438861,0.007600,0.028662,0.011859,1.143799,0.239990,0.003662,-0.570875,0.433730,0.538951,0.442168
20100,,9.932171,-0.166215,0.459821,0.009967,0.029091,0.012062,1.137207,0.233154,-0.000488,-0.570917,0.433678,0.538956,0.442158
20101,,9.918033,-0.187306,0.464561,0.005969,0.026657,0.012411,1.141357,0.244629,0.005859,-0.570940,0.433653,0.538953,0.442157
20102,,9.931884,-0.168670,0.465106,0.007418,0.023523,0.013922,1.145996,0.240234,-0.000732,-0.570966,0.433625,0.538964,0.442137
20103,,9.914732,-0.191222,0.434956,0.020032,0.021624,0.015412,1.139404,0.237793,-0.005127,-0.571020,0.433565,0.539011,0.442069
20104,,9.874070,-0.221885,0.458783,0.032794,0.014746,0.016333,1.141602,0.239990,0.006104,-0.571083,0.433491,0.539099,0.441954
20105,,9.997215,-0.164842,0.412650,0.034858,0.014399,0.012860,1.143799,0.242432,0.008057,-0.571141,0.433403,0.539201,0.441840
20106,,9.929893,-0.144730,0.454022,0.028349,0.016513,0.013572,1.141602,0.235596,0.003906,-0.571192,0.433330,0.539280,0.441749
