PacketCounter,SampleTimeFine,Acc_X,Acc_Y,Acc_Z,Gyr_X,Gyr_Y,Gyr_Z,Mag_X,Mag_Y,Mag_Z,Quat_q0,Quat_q1,Quat_q2,Quat_q3
19741,NaN,9.87843,-0.457495,-0.742563,0.026727,0.034943,-0.008144,1.166016,-0.14209,0.116943,-0.031377,0.732895,-0.004902,0.6796
19742,NaN,9.851534,-0.438099,-0.729379,0.017261,0.034031,-0.003834,1.168213,-0.139893,0.114746,-0.031451,0.732845,-0.004915,0.679651
19743,NaN,9.83994,-0.44006,-0.693414,0.018548,0.037611,-0.000906,1.165771,-0.137695,0.112549,-0.031534,0.732785,-0.004939,0.679712
19744,NaN,9.836769,-0.417247,-0.744599,0.007675,0.039922,0.004703,1.165527,-0.131104,0.112305,-0.0316,0.732716,-0.005013,0.679781
19745,NaN,9.824269,-0.469745,-0.674992,0.003177,0.038537,0.011282,1.16333,-0.135498,0.114502,-0.031668,0.732655,-0.005134,0.679843
19746,NaN,9.830867,-0.445199,-0.703992,-0.004075,0.040078,0.015018,1.17041,-0.137451,0.118896,-0.031733,0.732589,-0.005272,0.679911
19747,NaN,9.8259,-0.522915,-0.688396,0.000882,0.0396,0.017296,1.163574,-0.137695,0.112305,-0.031813,0.732524,-0.005423,0.679976
19748,NaN,9.858772,-0.567208,-0.693735,0.003639,0.036438,0.013478,1.168213,-0.139893,0.108154,-0.031902,0.732467,-0.005531,0.680032
19749,NaN,9.855644,-0.545495,-0.745097,0.008114,0.038051,0.013565,1.15918,-0.14209,0.110352,-0.031996,0.732407,-0.005644,0.680092
19750,NaN,9.838408,-0.525065,-0.709528,0.00541,0.037689,0.011938,1.166016,-0.14209,0.114746,-0.032058,0.732349,-0.005776,0.680149
19751,NaN,9.83861,-0.526174,-0.705899,0.012893,0.035096,0.009306,1.170654,-0.141846,0.114746,-0.032155,0.732298,-0.005856,0.680199
19752,NaN,9.849779,-0.574738,-0.701401,0.014727,0.033066,0.008983,1.163574,-0.137695,0.116699,-0.03226,0.732252,-0.005923,0.680243
19753,NaN,9.860713,-0.523255,-0.709115,0.016264,0.035363,0.006347,1.175049,-0.141846,0.112549,-0.03236,0.7322,-0.005981,0.680294
19754,NaN,9.834981,-0.555334,-0.717159,0.02055,0.034736,0.006558,1.167969,-0.137451,0.114502,-0.032482,0.732148,-0.006012,0.680344
19755,NaN,9.833932,-0.505762,-0.692572,0.026435,0.033124,0.005351,1.163818,-0.144287,0.116943,-0.032615,0.732101,-0.006031,0.680388
19756,NaN,9.806927,-0.4874,-0.679739,0.011338,0.032551,0.005279,1.168457,-0.148682,0.119385,-0.032699,0.732058,-0.00609,0.68043
19757,NaN,9.849496,-0.528163,-0.663197,0.016291,0.032072,0.007566,1.165771,-0.137695,0.114502,-0.032802,0.732016,-0.006152,0.680469
19758,NaN,9.833215,-0.457831,-0.661831,0.008664,0.029145,0.011527,1.168213,-0.139893,0.114746,-0.032898,0.731984,-0.006244,0.680498
19759,NaN,9.81289,-0.514044,-0.670004,0.003942,0.028577,0.010337,1.163574,-0.139893,0.118896,-0.032966,0.731956,-0.006357,0.680524
19760,NaN,9.855369,-0.555209,-0.654004,0.001968,0.025085,0.011996,1.168457,-0.146484,0.117188,-0.033044,0.731939,-0.006464,0.680538
19761,NaN,9.830652,-0.538123,-0.696671,0.005831,0.023264,0.011235,1.161377,-0.139893,0.112549,-0.033122,0.731929,-0.006573,0.680543
19762,NaN,9.840426,-0.536438,-0.67205,-0.000729,0.024726,0.010363,1.166016,-0.144287,0.116943,-0.033172,0.731915,-0.006699,0.680555
19763,NaN,9.81039,-0.595246,-0.703081,0.000685,0.021503,0.009067,1.163574,-0.137695,0.114502,-0.033224,0.731912,-0.006817,0.680555
19764,NaN,9.840609,-0.53843,-0.667769,0.020115,0.018158,0.010592,1.163574,-0.137695,0.110352,-0.033359,0.731916,-0.006861,0.680544
19765,NaN,9.862429,-0.534804,-0.675855,0.005212,0.019831,0.01038,1.161621,-0.146484,0.119141,-0.033432,0.731918,-0.006969,0.680537
19766,NaN,9.836564,-0.567031,-0.685602,0.008414,0.017861,0.007548,1.166016,-0.144287,0.119141,-0.033508,0.731925,-0.007048,0.680524
19767,NaN,9.809427,-0.548898,-0.674383,0.007049,0.017801,0.010061,1.166016,-0.14209,0.119141,-0.033587,0.731933,-0.007148,0.68051
19768,NaN,9.876021,-0.585991,-0.723822,0.012517,0.014995,0.007888,1.166016,-0.144287,0.116943,-0.033695,0.731948,-0.007196,0.680489
19769,NaN,9.821671,-0.548763,-0.70336,0.016989,0.016602,0.007986,1.164063,-0.148682,0.11499,-0.033803,0.731958,-0.007254,0.680472
19770,NaN,9.831375,-0.54691,-0.679404,0.00662,0.016607,0.009084,1.16626,-0.148682,0.11499,-0.033879,0.73197,-0.007348,0.680455
19771,NaN,9.808426,-0.602185,-0.634314,0.011147,0.014934,0.010402,1.164063,-0.150879,0.11499,-0.033974,0.731987,-0.007434,0.68043
19772,NaN,9.821848,-0.551774,-0.698507,0.015195,0.015347,0.009524,1.161621,-0.146484,0.110596,-0.034076,0.732002,-0.007511,0.680409
19773,NaN,9.826107,-0.526133,-0.67507,0.006559,0.019885,0.007864,1.166016,-0.144287,0.119141,-0.034145,0.732003,-0.007605,0.680403
19774,NaN,9.82073,-0.602955,-0.661567,0.005346,0.013027,0.006154,1.16626,-0.146484,0.117188,-0.034206,0.732027,-0.007689,0.680373
19775,NaN,9.854721,-0.596784,-0.70237,-0.003711,0.016373,0.003516,1.163818,-0.144287,0.121338,-0.034223,0.732042,-0.007801,0.680354
19776,NaN,9.850651,-0.623464,-0.72243,0.003308,0.015859,-0.001287,1.164063,-0.150879,0.117188,-0.034268,0.732055,-0.007846,0.680338
19777,NaN,9.860399,-0.620407,-0.69852,0.004433,0.016959,-0.004898,1.168701,-0.150879,0.119385,-0.034287,0.732068,-0.0079,0.680323
19778,NaN,9.795249,-0.633603,-0.666954,-0.009234,0.016222,-0.014179,1.164063,-0.150879,0.119385,-0.034232,0.732082,-0.007958,0.680309
19779,NaN,9.856571,-0.644757,-0.717444,0.028583,0.004892,-0.012909,1.166016,-0.144287,0.110596,-0.034312,0.732132,-0.007898,0.680253
19780,NaN,9.888082,-0.536015,-0.716852,0.020889,0.008293,-0.018063,1.16626,-0.150879,0.11499,-0.034348,0.73217,-0.00784,0.68021
19781,NaN,9.796952,-0.580203,-0.69785,0.026789,0.00364,-0.011372,1.166016,-0.144287,0.114746,-0.034427,0.732224,-0.007792,0.680149
19782,NaN,9.831271,-0.494705,-0.642272,0.020415,0.00734,-0.012378,1.163818,-0.144287,0.114746,-0.034482,0.732265,-0.007755,0.680102
19783,NaN,9.872089,-0.561337,-0.704085,0.002614,0.00667,-0.007465,1.168457,-0.148682,0.106445,-0.034486,0.732313,-0.007804,0.68005
19784,NaN,9.849137,-0.614718,-0.659992,0.003797,0.00449,-0.009855,1.166504,-0.153076,0.113037,-0.034477,0.732369,-0.007843,0.679989
19785,NaN,9.824592,-0.595562,-0.704578,0.001714,0.007561,-0.010638,1.170654,-0.141846,0.112549,-0.034466,0.732414,-0.007883,0.679941
19786,NaN,9.830163,-0.618382,-0.703226,0.008265,0.006097,-0.009753,1.168457,-0.146484,0.11499,-0.034484,0.732462,-0.007899,0.679888
19787,NaN,9.861646,-0.609898,-0.690117,0.020828,0.008533,-0.011399,1.164063,-0.148682,0.11499,-0.03454,0.732501,-0.007872,0.679844
19788,NaN,9.831659,-0.566833,-0.735195,0.013254,0.005373,-0.014115,1.163818,-0.146484,0.108398,-0.034568,0.732549,-0.007847,0.67979
19789,NaN,9.809993,-0.570532,-0.724541,0.014992,0.006869,-0.008989,1.16626,-0.148682,0.11499,-0.034611,0.732594,-0.007848,0.67974
19790,NaN,9.842711,-0.51252,-0.745078,0.013671,0.006565,-0.013138,1.168457,-0.144287,0.112793,-0.034633,0.73264,-0.007838,0.679689
19791,NaN,9.829388,-0.562776,-0.678526,-0.006626,0.007769,-0.009992,1.159424,-0.148682,0.112793,-0.034593,0.732686,-0.007909,0.679641
19792,NaN,9.849782,-0.584721,-0.763831,0.000763,0.008694,-0.007152,1.166016,-0.14209,0.110352,-0.034594,0.732726,-0.007958,0.679597
19793,NaN,9.847254,-0.58304,-0.708715,0.002007,0.003237,-0.008319,1.163574,-0.14209,0.112549,-0.034592,0.732785,-0.008005,0.679533
19794,NaN,9.829668,-0.560157,-0.676637,-0.009311,0.007408,-0.01163,1.170898,-0.148682,0.112793,-0.034545,0.732833,-0.008061,0.679484
19795,NaN,9.812172,-0.714887,-0.729035,-0.001337,0.002726,-0.012032,1.159668,-0.15332,0.113037,-0.034518,0.732894,-0.008105,0.679418
19796,NaN,9.859922,-0.67761,-0.727039,0.036285,0.001257,-0.014395,1.164063,-0.148682,0.110596,-0.034621,0.732953,-0.008013,0.67935
19797,NaN,9.818998,-0.508658,-0.676679,0.005132,0.007568,-0.020248,1.159424,-0.148682,0.112793,-0.03459,0.732998,-0.008007,0.679304
19798,NaN,9.823403,-0.658086,-0.738716,0.01234,0.00626,-0.017285,1.16626,-0.146484,0.11499,-0.034594,0.733045,-0.007987,0.679253
19799,NaN,9.84395,-0.600701,-0.727017,0.014865,0.007161,-0.030066,1.168457,-0.146484,0.110596,-0.034566,0.733089,-0.007911,0.679208
19800,NaN,9.834626,-0.600791,-0.748285,0.001235,0.012407,-0.027382,1.16626,-0.150879,0.11084,-0.034506,0.733117,-0.007876,0.679181
19801,NaN,9.83636,-0.648347,-0.767984,0.018836,0.010853,-0.032159,1.16626,-0.150879,0.108643,-0.034485,0.733148,-0.00778,0.679149
19802,NaN,9.855454,-0.539783,-0.734905,0.019248,0.012045,-0.031183,1.16626,-0.146484,0.110596,-0.034461,0.733176,-0.007694,0.679122
19803,NaN,9.833919,-0.5417,-0.723835,0.017285,0.008558,-0.029523,1.170654,-0.14624,0.11499,-0.034443,0.733215,-0.007613,0.679081
19804,NaN,9.778535,-0.628728,-0.767586,0.01313,0.011668,-0.023214,1.168457,-0.144287,0.106201,-0.034442,0.733243,-0.007552,0.679052
19805,NaN,9.835265,-0.409513,-0.65852,0.024971,0.005176,-0.024356,1.164063,-0.150879,0.108643,-0.03447,0.733292,-0.007462,0.678998
19806,NaN,9.838278,-0.430222,-0.602445,-0.031903,0.012414,-0.017054,1.168457,-0.144287,0.110596,-0.034304,0.733328,-0.007602,0.678967
19807,NaN,9.918614,-0.740282,-0.756115,-0.00518,0.004271,-0.017945,1.171143,-0.153076,0.108643,-0.034243,0.733385,-0.007638,0.678908
19808,NaN,9.861238,-0.677928,-0.792441,0.027018,0.002372,-0.016905,1.166016,-0.144287,0.114746,-0.034303,0.733443,-0.007567,0.678843
19809,NaN,9.791177,-0.517535,-0.809073,0.021511,0.00819,-0.022631,1.16626,-0.148682,0.110596,-0.034324,0.733483,-0.007496,0.678799
19810,NaN,9.836696,-0.578029,-0.738948,0.007221,0.013269,-0.022031,1.166016,-0.144287,0.110596,-0.034306,0.733505,-0.007461,0.678776
19811,NaN,9.844856,-0.522499,-0.694496,0.010842,0.012493,-0.023876,1.168457,-0.146484,0.108398,-0.034283,0.733532,-0.007423,0.678749
19812,NaN,9.841113,-0.547048,-0.71462,-0.004564,0.016475,-0.019669,1.161621,-0.148682,0.110596,-0.034222,0.733548,-0.007443,0.678735
19813,NaN,9.799426,-0.60493,-0.714109,0.002265,0.013729,-0.024334,1.164063,-0.150879,0.106445,-0.034166,0.733572,-0.007433,0.678712
19814,NaN,9.800744,-0.553303,-0.746337,0.011666,0.014883,-0.021923,1.16626,-0.148682,0.108398,-0.034144,0.73359,-0.00741,0.678693
19815,NaN,9.843459,-0.590787,-0.731116,0.012188,0.012544,-0.026382,1.161377,-0.144287,0.110596,-0.034118,0.733617,-0.007358,0.678666
19816,NaN,9.843068,-0.488749,-0.74273,0.016016,0.01099,-0.020467,1.168213,-0.14209,0.104004,-0.034126,0.733647,-0.007312,0.678634
19817,NaN,9.851062,-0.433866,-0.698411,-0.008584,0.013029,-0.01092,1.173096,-0.148438,0.108643,-0.034076,0.733675,-0.007387,0.678606
19818,NaN,9.817701,-0.517656,-0.751878,-0.016496,0.014418,-0.009308,1.168457,-0.146484,0.106201,-0.033999,0.733701,-0.007493,0.67858
19819,NaN,9.84808,-0.55842,-0.704433,-0.015422,0.01577,-0.006258,1.163818,-0.146484,0.108398,-0.03394,0.73372,-0.007609,0.678561
19820,NaN,9.810255,-0.59135,-0.682514,-0.016293,0.013637,-0.001549,1.168457,-0.148682,0.11499,-0.03389,0.733747,-0.007746,0.678533
19821,NaN,9.838822,-0.560542,-0.723964,-0.003755,0.016102,-0.003176,1.16626,-0.150879,0.11084,-0.033884,0.733764,-0.007834,0.678514
19822,NaN,9.83894,-0.560214,-0.722622,-0.004096,0.011632,-0.002928,1.168213,-0.14209,0.108154,-0.033889,0.733792,-0.007911,0.678482
19823,NaN,9.84186,-0.560786,-0.775719,-0.014598,0.018159,-0.004307,1.166016,-0.144287,0.110596,-0.033839,0.733803,-0.008031,0.678471
19824,NaN,9.843727,-0.610734,-0.795136,-0.006365,0.012459,-0.003594,1.168701,-0.150879,0.106445,-0.033833,0.733832,-0.008106,0.67844
19825,NaN,9.83652,-0.536207,-0.77363,-0.005781,0.015888,-0.002741,1.16626,-0.150879,0.108643,-0.033821,0.733849,-0.008202,0.678421
19826,NaN,9.829981,-0.561437,-0.739057,-0.010561,0.018581,-0.005174,1.16626,-0.146484,0.108398,-0.033777,0.733858,-0.008313,0.678412
19827,NaN,9.856451,-0.629205,-0.712942,-0.004423,0.015943,-0.005249,1.16626,-0.150879,0.11084,-0.033761,0.733875,-0.008395,0.678393
19828,NaN,9.834149,-0.533784,-0.714166,0.000692,0.017719,-0.003063,1.166504,-0.153076,0.108643,-0.033776,0.733884,-0.008461,0.678382
19829,NaN,9.852235,-0.555078,-0.743913,-0.006938,0.017807,-0.007015,1.170898,-0.148438,0.106445,-0.033746,0.733895,-0.008546,0.67837
19830,NaN,9.834143,-0.660207,-0.773837,-0.005284,0.022588,-0.003111,1.16626,-0.148682,0.112793,-0.033731,0.733889,-0.008643,0.678376
19831,NaN,9.811893,-0.564502,-0.77461,-0.007679,0.020923,-0.010313,1.170898,-0.148682,0.112793,-0.033686,0.73389,-0.008719,0.678376
19832,NaN,9.830748,-0.684958,-0.791402,0.003865,0.018767,-0.013757,1.168701,-0.150879,0.113037,-0.03369,0.733893,-0.00872,0.678373
19833,NaN,9.817973,-0.585688,-0.769931,0.010093,0.021638,-0.015175,1.16626,-0.150879,0.106445,-0.033694,0.733889,-0.008717,0.678377
19834,NaN,9.827696,-0.581129,-0.745333,0.002628,0.023958,-0.019254,1.168457,-0.146484,0.108398,-0.03366,0.733877,-0.008721,0.678392
19835,NaN,9.849763,-0.574377,-0.753118,0.006166,0.01768,-0.019747,1.16626,-0.148682,0.104248,-0.033634,0.733887,-0.008715,0.678383
19836,NaN,9.837658,-0.574469,-0.718977,0.015072,0.020921,-0.019518,1.16626,-0.148682,0.108398,-0.033639,0.733885,-0.008678,0.678385
19837,NaN,9.828502,-0.575527,-0.739029,-0.001673,0.024564,-0.019493,1.168701,-0.150879,0.108643,-0.033585,0.733873,-0.0087,0.6784
19838,NaN,9.821221,-0.62696,-0.779945,-0.003864,0.022116,-0.018939,1.164063,-0.153076,0.104248,-0.033526,0.733868,-0.008728,0.678408
19839,NaN,9.847107,-0.59338,-0.765887,0.00801,0.024433,-0.02262,1.16626,-0.148682,0.106445,-0.033496,0.733855,-0.008706,0.678423
19840,NaN,9.825626,-0.596137,-0.753524,0.010436,0.02584,-0.022073,1.16626,-0.148682,0.104248,-0.033465,0.733838,-0.008692,0.678444
19841,NaN,9.81356,-0.595941,-0.718693,0.018512,0.026693,-0.023791,1.16626,-0.146484,0.108398,-0.03347,0.733815,-0.008631,0.678469
19842,NaN,9.820627,-0.568013,-0.749044,0.017931,0.023261,-0.024644,1.166016,-0.144287,0.112793,-0.033466,0.733805,-0.008569,0.678481
19843,NaN,9.819003,-0.515235,-0.725774,0.011368,0.024691,-0.025555,1.166504,-0.153076,0.108643,-0.033439,0.733791,-0.008524,0.678499
19844,NaN,9.82803,-0.537624,-0.776906,-0.000434,0.027871,-0.023228,1.168457,-0.148682,0.108398,-0.033384,0.733765,-0.008519,0.678529
19845,NaN,9.821598,-0.561261,-0.741368,0.005004,0.025346,-0.018708,1.168457,-0.146484,0.110596,-0.033357,0.73375,-0.008522,0.678547
19846,NaN,9.86247,-0.548551,-0.703796,-0.001396,0.029008,-0.019746,1.159424,-0.146484,0.099854,-0.033309,0.733721,-0.008533,0.67858
19847,NaN,9.827891,-0.581337,-0.735331,0.007511,0.023484,-0.016935,1.161621,-0.148682,0.108398,-0.033298,0.733711,-0.008533,0.678591
19848,NaN,9.831835,-0.553067,-0.711318,0.009936,0.024894,-0.016386,1.16626,-0.148682,0.106445,-0.033279,0.733697,-0.008544,0.678607
19849,NaN,9.850255,-0.57336,-0.740236,0.01018,0.023856,-0.015285,1.16626,-0.148682,0.110596,-0.033283,0.733686,-0.008542,0.67862
19850,NaN,9.828706,-0.576847,-0.727936,0.010336,0.026087,-0.015408,1.163818,-0.146484,0.108398,-0.033285,0.733666,-0.008538,0.678641
19851,NaN,9.808231,-0.530962,-0.749257,0.006292,0.025655,-0.014554,1.163818,-0.146484,0.112793,-0.033277,0.733648,-0.008552,0.67866
19852,NaN,9.801734,-0.555129,-0.713695,-0.000518,0.028117,-0.016574,1.163818,-0.146484,0.108398,-0.033243,0.733622,-0.00857,0.67869
19853,NaN,9.850316,-0.616619,-0.696087,-0.003607,0.026543,-0.0192,1.163818,-0.146484,0.110596,-0.033183,0.733604,-0.0086,0.678712
19854,NaN,9.850194,-0.642351,-0.769558,0.010366,0.025818,-0.02206,1.168457,-0.148682,0.108398,-0.033167,0.733584,-0.008566,0.678735
19855,NaN,9.848416,-0.589862,-0.746079,0.012786,0.027228,-0.021509,1.168457,-0.144287,0.116943,-0.033159,0.733561,-0.008532,0.678761
19856,NaN,9.80509,-0.597558,-0.723879,0.013735,0.026084,-0.024988,1.166016,-0.14209,0.108154,-0.033158,0.733539,-0.00846,0.678785
19857,NaN,9.821523,-0.566519,-0.731872,0.009284,0.024453,-0.025113,1.166504,-0.153076,0.115234,-0.033125,0.733526,-0.008425,0.678802
19858,NaN,9.831157,-0.560929,-0.706987,0.004083,0.025928,-0.02854,1.170654,-0.14624,0.110596,-0.03307,0.733506,-0.008383,0.678826
19859,NaN,9.833686,-0.60861,-0.725297,0.010228,0.023307,-0.02859,1.164063,-0.148682,0.106445,-0.033029,0.733497,-0.008331,0.678839
19860,NaN,9.822545,-0.558371,-0.724379,0.012143,0.026788,-0.030238,1.164063,-0.148682,0.108398,-0.032987,0.733475,-0.008267,0.678865
19861,NaN,9.825113,-0.606101,-0.742698,0.012735,0.02145,-0.026811,1.168457,-0.144287,0.110596,-0.032961,0.733472,-0.008213,0.678871
19862,NaN,9.829976,-0.527579,-0.752657,0.028014,0.021059,-0.025501,1.168457,-0.144287,0.116943,-0.032997,0.733466,-0.008107,0.678876
19863,NaN,9.854596,-0.542667,-0.704741,0.016254,0.023946,-0.029862,1.166016,-0.144287,0.110596,-0.032973,0.733454,-0.00803,0.678892
19864,NaN,9.84564,-0.543133,-0.724817,0.011354,0.021387,-0.02431,1.161377,-0.14209,0.110352,-0.032969,0.733447,-0.007965,0.6789
19865,NaN,9.842467,-0.567509,-0.744043,0.011248,0.02465,-0.025535,1.168457,-0.144287,0.114746,-0.032942,0.733433,-0.007921,0.678917
19866,NaN,9.837125,-0.513547,-0.666391,0.007207,0.024213,-0.024688,1.168457,-0.144287,0.114746,-0.032916,0.733419,-0.007873,0.678934
19867,NaN,9.802873,-0.545993,-0.698248,0.003167,0.023776,-0.023842,1.168457,-0.146484,0.110596,-0.032865,0.733409,-0.007862,0.678948
19868,NaN,9.85845,-0.580982,-0.713693,0.018998,0.021055,-0.026974,1.163818,-0.146484,0.11499,-0.032874,0.733403,-0.007769,0.678954
19869,NaN,9.884031,-0.546588,-0.699677,0.010015,0.021049,-0.028462,1.168457,-0.148682,0.11499,-0.032833,0.733401,-0.007718,0.678959
19870,NaN,9.856692,-0.553218,-0.764107,0.03072,0.03243,-0.026529,1.163818,-0.14209,0.110352,-0.032888,0.733354,-0.007589,0.679009
19871,NaN,9.836247,-0.478575,-0.708533,0.016531,0.039656,-0.026153,1.168457,-0.144287,0.108398,-0.032878,0.733288,-0.007528,0.679082
19872,NaN,9.808027,-0.534738,-0.73803,0.000137,0.038937,-0.023881,1.168457,-0.144287,0.110596,-0.032816,0.733226,-0.007523,0.679151
19873,NaN,9.845286,-0.548057,-0.720981,-5.9e-05,0.031209,-0.022402,1.164063,-0.148682,0.11499,-0.032758,0.733191,-0.00753,0.679191
19874,NaN,9.817933,-0.527359,-0.709178,-0.001172,0.030122,-0.018801,1.177734,-0.14624,0.106201,-0.032714,0.733158,-0.007546,0.679229
19875,NaN,9.829913,-0.572877,-0.70458,0.000692,0.028108,-0.019096,1.166016,-0.144287,0.110596,-0.03267,0.733134,-0.007562,0.679257
19876,NaN,9.824339,-0.547457,-0.703131,-0.001256,0.019131,-0.016096,1.16626,-0.148682,0.110596,-0.032626,0.733141,-0.007594,0.679252
19877,NaN,9.830433,-0.569223,-0.700274,0.007258,0.020927,-0.023454,1.170898,-0.148682,0.112793,-0.032592,0.73314,-0.007571,0.679255
19878,NaN,9.837518,-0.541606,-0.731368,0.000209,0.015919,-0.017367,1.163818,-0.146484,0.11499,-0.032553,0.733155,-0.007594,0.679239
19879,NaN,9.837722,-0.539766,-0.729982,0.005311,0.01195,-0.020454,1.168457,-0.144287,0.108398,-0.032521,0.733185,-0.007587,0.679209
19880,NaN,9.841231,-0.510912,-0.707169,-0.005537,0.013945,-0.021661,1.170654,-0.144043,0.110596,-0.03245,0.733208,-0.007606,0.679187
19881,NaN,9.834848,-0.562405,-0.748914,-0.013205,0.014262,-0.019007,1.166016,-0.144287,0.114746,-0.032356,0.733233,-0.007668,0.679164
19882,NaN,9.816469,-0.538762,-0.716638,-0.000887,0.009059,-0.019069,1.163574,-0.139893,0.108154,-0.032317,0.733271,-0.007671,0.679125
19883,NaN,9.825802,-0.533836,-0.693084,-0.01054,0.014647,-0.017347,1.166016,-0.14209,0.112549,-0.032238,0.733294,-0.007729,0.679103
19884,NaN,9.819434,-0.58573,-0.734994,-0.001853,0.010204,-0.015593,1.163818,-0.146484,0.108398,-0.032203,0.73333,-0.00775,0.679066
19885,NaN,9.844717,-0.552342,-0.722163,0.006323,0.007825,-0.016042,1.168457,-0.148682,0.110596,-0.032191,0.733373,-0.007755,0.67902
19886,NaN,9.829863,-0.530012,-0.744459,0.005296,0.01195,-0.020449,1.163818,-0.146484,0.106201,-0.032155,0.733402,-0.007754,0.67899
19887,NaN,9.83592,-0.551889,-0.742637,0.005921,0.006625,-0.017019,1.16626,-0.146484,0.108398,-0.032138,0.733449,-0.007757,0.67894
19888,NaN,9.821056,-0.529638,-0.765005,0.00393,0.011895,-0.017952,1.163818,-0.146484,0.112793,-0.0321,0.73348,-0.007774,0.678909
19889,NaN,9.864611,-0.489818,-0.706946,-0.006266,0.014048,-0.017085,1.168457,-0.146484,0.112793,-0.032038,0.733504,-0.007819,0.678885
19890,NaN,9.839708,-0.519984,-0.717457,-0.010159,0.015834,-0.016373,1.163818,-0.146484,0.110596,-0.031972,0.73352,-0.00787,0.67887
19891,NaN,9.814821,-0.550332,-0.727833,-0.00911,0.0172,-0.013317,1.170654,-0.14624,0.110596,-0.031912,0.733534,-0.007939,0.678857
19892,NaN,9.846424,-0.568349,-0.789404,-0.004772,0.016331,-0.019706,1.16626,-0.146484,0.110596,-0.03185,0.733548,-0.007965,0.678844
19893,NaN,9.861688,-0.587167,-0.764397,0.000963,0.018308,-0.015407,1.168457,-0.148682,0.108398,-0.031819,0.733557,-0.007992,0.678836
19894,NaN,9.834134,-0.567026,-0.753998,0.012776,0.015182,-0.017664,1.166016,-0.14209,0.110352,-0.031824,0.733573,-0.007973,0.678818
19895,NaN,9.822517,-0.5181,-0.754064,0.002973,0.018528,-0.015825,1.168213,-0.14209,0.110352,-0.031799,0.733581,-0.007992,0.678811
19896,NaN,9.843699,-0.560643,-0.727979,0.008362,0.019027,-0.019156,1.17041,-0.139648,0.112549,-0.031792,0.733584,-0.007964,0.678808
19897,NaN,9.847616,-0.559995,-0.780455,0.008755,0.020225,-0.018178,1.170654,-0.144043,0.112793,-0.031781,0.733585,-0.007955,0.678807
19898,NaN,9.829185,-0.536478,-0.747177,0.010249,0.022507,-0.020799,1.166016,-0.14209,0.108154,-0.031786,0.733576,-0.007903,0.678818
19899,NaN,9.848198,-0.556183,-0.775821,0.008504,0.026742,-0.020631,1.166016,-0.144287,0.110596,-0.031765,0.733554,-0.007887,0.678842
19900,NaN,9.823852,-0.50878,-0.742943,0.007844,0.026571,-0.02271,1.164063,-0.148682,0.108398,-0.031738,0.733533,-0.007857,0.678867
19901,NaN,9.845149,-0.551021,-0.715611,0.011964,0.035018,-0.018365,1.166016,-0.14209,0.112549,-0.031738,0.733483,-0.007839,0.678921
19902,NaN,9.852359,-0.523455,-0.745154,0.008499,0.032223,-0.021982,1.163818,-0.14209,0.108154,-0.031714,0.733442,-0.007815,0.678967
19903,NaN,9.830601,-0.603585,-0.774576,0.01979,0.031163,-0.026429,1.168457,-0.148682,0.110596,-0.031715,0.733404,-0.00774,0.679008
19904,NaN,9.816199,-0.503387,-0.75264,0.024068,0.030578,-0.026156,1.161377,-0.14209,0.110352,-0.031731,0.733367,-0.007652,0.679049
19905,NaN,9.853449,-0.516394,-0.735619,0.016136,0.031908,-0.024621,1.166016,-0.14209,0.112549,-0.031725,0.733328,-0.007596,0.679092
19906,NaN,9.847829,-0.49036,-0.733478,0.011314,0.029058,-0.025745,1.163818,-0.144287,0.104004,-0.031703,0.733297,-0.00754,0.679128
19907,NaN,9.82618,-0.570271,-0.763102,-0.001557,0.030798,-0.026567,1.166016,-0.144287,0.116943,-0.031626,0.733263,-0.007537,0.679167
19908,NaN,9.810735,-0.519277,-0.707601,0.007272,0.028606,-0.024914,1.168213,-0.14209,0.108154,-0.031586,0.733235,-0.007508,0.6792
19909,NaN,9.814035,-0.567309,-0.725401,0.006873,0.027404,-0.025891,1.168213,-0.139893,0.108154,-0.031541,0.733212,-0.007478,0.679227
19910,NaN,9.826373,-0.534849,-0.6789,0.019207,0.022236,-0.025913,1.17041,-0.139648,0.112549,-0.031541,0.733206,-0.007401,0.679235
19911,NaN,9.846439,-0.504868,-0.741444,0.019591,0.023434,-0.024936,1.168457,-0.146484,0.11499,-0.031546,0.733194,-0.00733,0.679248
19912,NaN,9.840717,-0.478946,-0.740138,0.015429,0.020754,-0.023983,1.172852,-0.141846,0.112549,-0.031554,0.73319,-0.007259,0.679253
19913,NaN,9.844015,-0.527311,-0.758608,0.003737,0.020602,-0.02053,1.168457,-0.144287,0.112793,-0.031516,0.73319,-0.007258,0.679254
19914,NaN,9.837414,-0.550797,-0.723409,-0.000949,0.025461,-0.02314,1.168213,-0.14209,0.106201,-0.031463,0.733173,-0.00725,0.679275
19915,NaN,9.822729,-0.528003,-0.744378,0.002681,0.024709,-0.024941,1.17041,-0.139648,0.112549,-0.031406,0.73316,-0.007237,0.679292
19916,NaN,9.81613,-0.551365,-0.709164,0.003462,0.021625,-0.021631,1.17041,-0.139648,0.108154,-0.031366,0.733157,-0.007226,0.679297
19917,NaN,9.84125,-0.516889,-0.694871,0.011954,0.023434,-0.028953,1.170654,-0.144043,0.112793,-0.03133,0.733147,-0.007167,0.67931
19918,NaN,9.816745,-0.546297,-0.704551,0.010586,0.023379,-0.026461,1.167969,-0.135254,0.110107,-0.031301,0.733137,-0.007112,0.679323
19919,NaN,9.867721,-0.507759,-0.754269,0.016627,0.018573,-0.026338,1.168213,-0.139893,0.110352,-0.031291,0.733142,-0.007046,0.679319
19920,NaN,9.848992,-0.483779,-0.721319,0.011363,0.020294,-0.02315,1.168213,-0.14209,0.112549,-0.03128,0.733142,-0.006993,0.67932
19921,NaN,9.809479,-0.493268,-0.75469,0.009471,0.022293,-0.022866,1.168213,-0.14209,0.112549,-0.031256,0.733136,-0.006964,0.679328
19922,NaN,9.834528,-0.459068,-0.740378,-0.000467,0.023385,-0.020939,1.168213,-0.137451,0.110352,-0.031209,0.733126,-0.006965,0.679341
19923,NaN,9.820982,-0.508353,-0.672326,5.5e-05,0.021331,-0.018731,1.161377,-0.139893,0.114746,-0.031164,0.733125,-0.006984,0.679344
19924,NaN,9.828118,-0.480933,-0.703204,-0.005984,0.020649,-0.0175,1.170654,-0.141846,0.112549,-0.031112,0.733124,-0.007009,0.679346
19925,NaN,9.844582,-0.527549,-0.753422,0.001919,0.02481,-0.02037,1.166016,-0.139893,0.105957,-0.031068,0.733111,-0.007016,0.679363
19926,NaN,9.822962,-0.530908,-0.741638,0.002443,0.022756,-0.018162,1.17041,-0.137451,0.114502,-0.031032,0.733104,-0.007026,0.679372
19927,NaN,9.811059,-0.481958,-0.741338,0.000815,0.023729,-0.016775,1.165771,-0.137695,0.110352,-0.030997,0.733094,-0.007049,0.679384
19928,NaN,9.838478,-0.547878,-0.713556,0.002436,0.022754,-0.018161,1.163574,-0.137695,0.110352,-0.030976,0.733086,-0.007039,0.679394
19929,NaN,9.835437,-0.49576,-0.690917,0.007249,0.020131,-0.015668,1.16626,-0.146484,0.11499,-0.030967,0.733087,-0.007044,0.679393
19930,NaN,9.826768,-0.497398,-0.711415,0.000296,0.020296,-0.017626,1.17041,-0.139648,0.110352,-0.030933,0.733087,-0.007058,0.679394
19931,NaN,9.839196,-0.542856,-0.707473,-9.4e-05,0.019094,-0.018603,1.165771,-0.137695,0.112549,-0.030888,0.733093,-0.007077,0.67939
19932,NaN,9.824439,-0.520868,-0.729086,0.001205,0.019444,-0.014441,1.165771,-0.137695,0.110352,-0.03087,0.733097,-0.007091,0.679386
19933,NaN,9.83078,-0.542798,-0.726118,0.001647,0.020345,-0.020115,1.170654,-0.144043,0.108398,-0.030826,0.733098,-0.007099,0.679387
19934,NaN,9.824925,-0.517217,-0.725117,0.001643,0.020344,-0.020115,1.168213,-0.14209,0.108154,-0.030781,0.7331,-0.007104,0.679387
19935,NaN,9.825179,-0.515161,-0.723136,-0.001023,0.019938,-0.021788,1.16333,-0.135498,0.110107,-0.030722,0.733104,-0.007115,0.679386
19936,NaN,9.837666,-0.560274,-0.719288,0.003143,0.017143,-0.021372,1.168213,-0.139893,0.112549,-0.030679,0.733116,-0.007107,0.679374
19937,NaN,9.834516,-0.507682,-0.69706,0.007161,0.0176,-0.022187,1.161377,-0.139893,0.118896,-0.030648,0.733126,-0.007088,0.679365
19938,NaN,9.85053,-0.476666,-0.705704,0.005146,0.017369,-0.02178,1.167969,-0.135254,0.110107,-0.03063,0.733134,-0.007054,0.679358
19939,NaN,9.838413,-0.554,-0.713906,0.003634,0.020567,-0.020521,1.17041,-0.137451,0.110352,-0.030592,0.733134,-0.007053,0.679359
19940,NaN,9.845596,-0.526276,-0.744971,0.013065,0.016059,-0.02328,1.168457,-0.144287,0.112793,-0.030588,0.733148,-0.006991,0.679345
19941,NaN,9.813558,-0.504398,-0.680372,0.004335,0.020438,-0.025091,1.163574,-0.14209,0.114746,-0.030537,0.733149,-0.006972,0.679346
19942,NaN,9.861114,-0.541863,-0.717671,0.002203,0.01798,-0.024558,1.166016,-0.14209,0.110352,-0.030488,0.733156,-0.006953,0.679341
19943,NaN,9.824464,-0.524451,-0.730263,0.012287,0.013654,-0.025232,1.166016,-0.14209,0.108154,-0.030466,0.733179,-0.006905,0.679318
19944,NaN,9.818534,-0.498511,-0.72983,0.012665,0.014854,-0.024254,1.168213,-0.137451,0.105957,-0.030444,0.733198,-0.006863,0.679299
19945,NaN,9.840686,-0.490898,-0.737555,0.012776,0.017079,-0.02438,1.163574,-0.14209,0.112549,-0.030427,0.733209,-0.006817,0.679288
19946,NaN,9.862832,-0.483462,-0.745222,0.017977,0.01567,-0.020902,1.165771,-0.137695,0.114502,-0.030438,0.733223,-0.006764,0.679272
19947,NaN,9.843766,-0.460002,-0.712711,0.010048,0.016971,-0.019406,1.166016,-0.139893,0.105957,-0.030428,0.733235,-0.006746,0.67926
19948,NaN,9.819439,-0.490332,-0.723172,0.011672,0.015998,-0.020788,1.170654,-0.141846,0.110352,-0.030421,0.733249,-0.006709,0.679246
19949,NaN,9.847758,-0.506713,-0.729809,0.008031,0.016737,-0.019,1.166016,-0.139893,0.110352,-0.030405,0.733262,-0.006699,0.679233
19950,NaN,9.826043,-0.51037,-0.718911,0.004547,0.014227,-0.01598,1.168213,-0.137451,0.108154,-0.030388,0.733283,-0.006706,0.679211
19951,NaN,9.850747,-0.476489,-0.705332,0.020505,0.013851,-0.019093,1.167969,-0.135254,0.114502,-0.030417,0.733304,-0.006653,0.679188
19952,NaN,9.848334,-0.501886,-0.725351,0.011487,0.014075,-0.014009,1.17041,-0.137451,0.108154,-0.030442,0.733324,-0.006628,0.679166
19953,NaN,9.820394,-0.482274,-0.715573,0.013225,0.015329,-0.015519,1.168213,-0.14209,0.108154,-0.030456,0.73334,-0.006613,0.679147
19954,NaN,9.842489,-0.475569,-0.723402,0.011482,0.014074,-0.014009,1.167969,-0.137451,0.114502,-0.030467,0.733362,-0.006607,0.679123
19955,NaN,9.853239,-0.499307,-0.775091,0.008335,0.018241,-0.011374,1.172852,-0.141846,0.110352,-0.030477,0.733369,-0.006624,0.679115
19956,NaN,9.82458,-0.529,-0.731135,0.004914,0.015422,-0.015005,1.167969,-0.133057,0.10791,-0.030476,0.733385,-0.006621,0.679098
19957,NaN,9.840451,-0.49899,-0.740106,0.009028,0.012948,-0.00793,1.166016,-0.14209,0.108154,-0.030501,0.73341,-0.006647,0.67907
19958,NaN,9.818673,-0.503417,-0.729488,0.007727,0.012585,-0.012094,1.161377,-0.139893,0.110352,-0.030506,0.733437,-0.006657,0.67904
19959,NaN,9.835682,-0.55076,-0.780189,0.011963,0.017499,-0.013158,1.168213,-0.14209,0.108154,-0.030524,0.733446,-0.006655,0.679029
19960,NaN,9.816493,-0.528059,-0.747718,0.008213,0.016012,-0.011245,1.170654,-0.141846,0.106201,-0.030533,0.73346,-0.006673,0.679013
19961,NaN,9.819203,-0.500085,-0.724636,0.016513,0.015918,-0.011754,1.163574,-0.137695,0.108154,-0.030572,0.733475,-0.00666,0.678996
19962,NaN,9.843824,-0.466811,-0.710825,0.00658,0.016982,-0.009865,1.168457,-0.146484,0.11499,-0.030576,0.733487,-0.00669,0.678982
19963,NaN,9.839679,-0.470476,-0.786133,0.011843,0.015271,-0.013028,1.161377,-0.14209,0.110352,-0.030594,0.733504,-0.006688,0.678963
19964,NaN,9.847882,-0.515194,-0.727905,0.000283,0.017305,-0.009762,1.168213,-0.139893,0.110352,-0.030586,0.733513,-0.006735,0.678954
19965,NaN,9.855003,-0.48864,-0.759303,0.014387,0.013459,-0.011219,1.168213,-0.139893,0.110352,-0.030619,0.733536,-0.006731,0.678928
19966,NaN,9.824502,-0.496599,-0.770949,0.011884,0.017808,-0.006506,1.165771,-0.137695,0.105957,-0.030666,0.733542,-0.006742,0.678918
19967,NaN,9.835897,-0.465634,-0.725182,0.009226,0.017392,-0.008186,1.168457,-0.146484,0.108398,-0.03069,0.733552,-0.006768,0.678906
19968,NaN,9.804676,-0.522853,-0.702591,0.005587,0.018131,-0.006404,1.166016,-0.14209,0.104004,-0.030701,0.733561,-0.006818,0.678896
19969,NaN,9.848701,-0.511534,-0.719356,0.005586,0.01813,-0.006404,1.166016,-0.139893,0.108154,-0.030718,0.733569,-0.006863,0.678886
19970,NaN,9.837664,-0.541272,-0.761621,0.007484,0.016137,-0.006677,1.168457,-0.144287,0.108398,-0.030733,0.733584,-0.006906,0.678868
19971,NaN,9.840316,-0.513727,-0.738249,0.012087,0.022254,-0.006762,1.16626,-0.146484,0.108398,-0.030772,0.733577,-0.006928,0.678874
19972,NaN,9.831814,-0.516278,-0.758634,0.010412,0.020684,-0.011904,1.163818,-0.146484,0.108398,-0.030783,0.733576,-0.006945,0.678875
19973,NaN,9.83374,-0.537543,-0.70101,0.005413,0.021372,-0.00764,1.168457,-0.144287,0.110596,-0.030795,0.733573,-0.006986,0.678877
19974,NaN,9.831503,-0.563442,-0.720286,0.009489,0.021519,-0.015092,1.170654,-0.144043,0.108398,-0.030794,0.733568,-0.006992,0.678882
19975,NaN,9.83873,-0.536488,-0.751169,0.017677,0.019203,-0.01546,1.166016,-0.144287,0.108398,-0.030824,0.733571,-0.006963,0.678878
19976,NaN,9.843821,-0.481205,-0.70629,0.018049,0.020406,-0.014483,1.168213,-0.14209,0.106201,-0.030856,0.733569,-0.00694,0.678879
19977,NaN,9.81724,-0.539149,-0.737902,0.015287,0.017764,-0.016035,1.161377,-0.139893,0.105957,-0.030877,0.733577,-0.006916,0.678869
19978,NaN,9.841809,-0.505508,-0.723881,0.012293,0.018686,-0.012175,1.163574,-0.137695,0.10376,-0.03089,0.733583,-0.006923,0.678862
19979,NaN,9.849027,-0.478811,-0.754776,0.020418,0.021839,-0.013906,1.168457,-0.146484,0.104004,-0.030936,0.733576,-0.00689,0.678868
19980,NaN,9.827299,-0.482938,-0.743484,0.009634,0.018266,-0.013858,1.170654,-0.141846,0.106201,-0.030926,0.733586,-0.006909,0.678858
19981,NaN,9.833772,-0.505287,-0.740449,0.005995,0.019003,-0.012081,1.166016,-0.14209,0.106201,-0.030926,0.733591,-0.006932,0.678852
19982,NaN,9.812046,-0.509492,-0.72906,0.01021,0.023916,-0.013141,1.170654,-0.14624,0.108398,-0.03093,0.73358,-0.006942,0.678864
19983,NaN,9.812265,-0.508455,-0.726826,0.009016,0.020624,-0.009421,1.166016,-0.144287,0.106201,-0.030949,0.733579,-0.006964,0.678863
19984,NaN,9.840697,-0.525729,-0.732776,0.006736,0.021409,-0.010129,1.170654,-0.141846,0.110352,-0.03095,0.733576,-0.007002,0.678866
19985,NaN,9.832275,-0.528135,-0.753125,0.010472,0.022893,-0.012033,1.163574,-0.139893,0.108154,-0.030966,0.733567,-0.00701,0.678875
19986,NaN,9.8568,-0.494794,-0.738779,0.013289,0.020068,-0.009111,1.166016,-0.144287,0.106201,-0.031005,0.733567,-0.007011,0.678873
19987,NaN,9.82641,-0.502988,-0.749931,0.012401,0.023448,-0.005783,1.17041,-0.137451,0.105957,-0.031049,0.733556,-0.007036,0.678883
19988,NaN,9.832893,-0.525876,-0.746613,0.010905,0.018628,-0.009688,1.166016,-0.139893,0.110352,-0.031069,0.733562,-0.007052,0.678875
19989,NaN,9.826783,-0.501727,-0.745871,0.008556,0.019738,-0.003748,1.168213,-0.14209,0.108154,-0.031106,0.733564,-0.007096,0.678871
19990,NaN,9.83326,-0.524662,-0.742613,0.00672,0.021402,-0.01013,1.166016,-0.14209,0.110352,-0.031118,0.733561,-0.007116,0.678874
19991,NaN,9.811495,-0.529375,-0.7313,0.008278,0.020755,-0.004855,1.163574,-0.137695,0.112305,-0.03115,0.733559,-0.007158,0.678874
19992,NaN,9.820287,-0.525388,-0.706631,0.009637,0.020801,-0.007336,1.170898,-0.148438,0.108643,-0.031189,0.733555,-0.007169,0.678876
19993,NaN,9.842434,-0.519291,-0.71379,0.009262,0.019595,-0.008312,1.166016,-0.14209,0.112549,-0.031213,0.733558,-0.007194,0.678872
19994,NaN,9.849674,-0.493187,-0.744916,0.014085,0.017006,-0.005784,1.166016,-0.144287,0.108398,-0.031267,0.733567,-0.007209,0.678859
19995,NaN,9.820788,-0.523577,-0.700979,0.009802,0.017557,-0.006097,1.166016,-0.14209,0.110352,-0.0313,0.733576,-0.007241,0.678848
19996,NaN,9.856299,-0.515571,-0.740135,0.00688,0.018155,-0.008892,1.172852,-0.141846,0.106201,-0.031315,0.733583,-0.007269,0.678839
19997,NaN,9.818828,-0.549258,-0.718769,0.007793,0.017323,-0.0057,1.168213,-0.139893,0.116943,-0.031343,0.733593,-0.007308,0.678826
19998,NaN,9.826085,-0.52316,-0.749918,0.007247,0.019358,-0.007915,1.16626,-0.146484,0.108398,-0.031375,0.733595,-0.00732,0.678823
19999,NaN,9.819158,-0.547912,-0.71528,0.010958,0.013156,-0.008313,1.163818,-0.14209,0.110352,-0.031406,0.733619,-0.007338,0.678795
20000,NaN,9.839009,-0.568805,-0.74433,0.019343,0.015294,-0.008921,1.163574,-0.139893,0.110352,-0.031465,0.733633,-0.007326,0.678777
20001,NaN,9.854852,-0.539161,-0.752952,0.019807,0.01872,-0.008077,1.16626,-0.150879,0.108643,-0.031528,0.733637,-0.007316,0.67877
20002,NaN,9.857283,-0.51143,-0.72982,0.019336,0.015291,-0.008921,1.16626,-0.146484,0.106201,-0.031587,0.733652,-0.007306,0.678752
20003,NaN,9.826901,-0.519747,-0.741559,0.028631,0.016599,-0.006335,1.163818,-0.144287,0.106201,-0.031689,0.733661,-0.007272,0.678737
20004,NaN,9.807331,-0.497635,-0.709266,0.018066,0.017466,-0.006574,1.165771,-0.137695,0.108154,-0.03174,0.73367,-0.007286,0.678725
20005,NaN,9.818668,-0.522229,-0.76061,0.017693,0.016259,-0.007549,1.17041,-0.139648,0.105957,-0.031798,0.733682,-0.007285,0.678709
20006,NaN,9.805398,-0.523537,-0.727203,0.013685,0.015792,-0.006758,1.168457,-0.144287,0.110596,-0.031847,0.733698,-0.007287,0.67869
20007,NaN,9.82123,-0.493951,-0.735832,0.015509,0.019263,-0.008395,1.168457,-0.144287,0.108398,-0.031894,0.7337,-0.007291,0.678685
20008,NaN,9.827713,-0.516923,-0.732718,0.012046,0.016763,-0.005388,1.168213,-0.14209,0.112549,-0.031943,0.733711,-0.00731,0.678671
20009,NaN,9.856173,-0.534685,-0.738719,0.010506,0.019957,-0.004151,1.16626,-0.148682,0.110596,-0.031985,0.733712,-0.007346,0.678668
20010,NaN,9.845583,-0.565106,-0.780654,0.011418,0.019129,-0.000957,1.168457,-0.144287,0.108398,-0.032051,0.733713,-0.007381,0.678663
20011,NaN,9.841626,-0.514321,-0.758844,0.012313,0.015745,-0.004278,1.16626,-0.146484,0.110596,-0.0321,0.733728,-0.00741,0.678645
20012,NaN,9.834645,-0.539355,-0.723948,0.010227,0.020971,-0.00526,1.168213,-0.14209,0.106201,-0.032141,0.733724,-0.007439,0.678646
20013,NaN,9.834823,-0.538986,-0.721804,0.006588,0.021709,-0.003496,1.165771,-0.139893,0.112549,-0.032172,0.733719,-0.007492,0.678649
20014,NaN,9.824288,-0.569148,-0.763694,0.015766,0.01824,-0.007282,1.166016,-0.139893,0.110352,-0.032231,0.733724,-0.007482,0.678641
20015,NaN,9.846473,-0.563053,-0.770854,0.013216,0.020038,-0.009107,1.168213,-0.139893,0.110352,-0.032267,0.733725,-0.007491,0.678639
20016,NaN,9.838181,-0.565754,-0.791347,0.021219,0.020969,-0.010681,1.163574,-0.14209,0.112549,-0.03234,0.733719,-0.007444,0.678642
20017,NaN,9.868898,-0.555945,-0.775705,0.017212,0.020501,-0.009894,1.168213,-0.14209,0.106201,-0.032388,0.733717,-0.007437,0.678642
20018,NaN,9.833608,-0.562287,-0.732886,0.020751,0.017539,-0.01152,1.165771,-0.137695,0.112549,-0.03245,0.733724,-0.007398,0.678632
20019,NaN,9.827479,-0.537616,-0.73235,0.017834,0.018129,-0.014322,1.16626,-0.146484,0.110596,-0.032485,0.73373,-0.007372,0.678624
20020,NaN,9.827702,-0.536412,-0.730244,0.012379,0.023077,-0.012438,1.168213,-0.14209,0.106201,-0.03252,0.733718,-0.007352,0.678635
20021,NaN,9.813092,-0.515549,-0.752056,0.019743,0.018701,-0.008065,1.163818,-0.144287,0.108398,-0.032584,0.733722,-0.007342,0.678628
20022,NaN,9.834447,-0.558114,-0.724778,0.013915,0.01988,-0.013671,1.166016,-0.14209,0.106201,-0.032605,0.733723,-0.007329,0.678626
20023,NaN,9.811358,-0.540756,-0.76946,0.01537,0.017027,-0.008255,1.16626,-0.148682,0.110596,-0.032652,0.733733,-0.007333,0.678613
20024,NaN,9.850464,-0.527471,-0.731659,0.011002,0.015353,-0.008446,1.164063,-0.148682,0.117188,-0.032682,0.733749,-0.00735,0.678594
20025,NaN,9.842174,-0.530159,-0.752593,0.006179,0.017929,-0.010993,1.164063,-0.150879,0.106445,-0.032686,0.733758,-0.007375,0.678584
20026,NaN,9.813157,-0.559952,-0.708696,0.00645,0.016915,-0.009882,1.168213,-0.14209,0.106201,-0.032698,0.733767,-0.007404,0.678573
20027,NaN,9.885706,-0.566338,-0.732778,0.012813,0.01882,-0.010082,1.170898,-0.148438,0.108643,-0.032729,0.733772,-0.007411,0.678567
20028,NaN,9.820728,-0.532821,-0.738086,0.00681,0.018119,-0.008908,1.168457,-0.144287,0.106201,-0.032742,0.73378,-0.007439,0.678557
20029,NaN,9.818806,-0.559161,-0.757652,0.010992,0.015351,-0.008443,1.168213,-0.14209,0.104004,-0.032772,0.733797,-0.007457,0.678537
20030,NaN,9.857865,-0.545591,-0.720024,0.011625,0.012977,-0.012869,1.168457,-0.144287,0.110596,-0.032785,0.733823,-0.007456,0.678508
20031,NaN,9.827583,-0.553604,-0.732069,0.016986,0.01605,-0.009616,1.163818,-0.146484,0.108398,-0.032833,0.733836,-0.00745,0.678492
20032,NaN,9.847695,-0.574457,-0.76068,0.01471,0.016829,-0.010336,1.165771,-0.137695,0.110352,-0.032875,0.733846,-0.007441,0.678479
20033,NaN,9.8343,-0.57538,-0.727244,0.020979,0.016515,-0.010396,1.168213,-0.14209,0.110352,-0.032935,0.733857,-0.007419,0.678465
20034,NaN,9.81332,-0.531031,-0.750983,0.018614,0.015073,-0.01098,1.163818,-0.14209,0.110352,-0.033,0.733871,-0.007375,0.678446
20035,NaN,9.835509,-0.52462,-0.758452,0.008067,0.015932,-0.011251,1.16626,-0.148682,0.110596,-0.03301,0.733887,-0.007393,0.678429
20036,NaN,9.864084,-0.54165,-0.76436,0.012151,0.018618,-0.012168,1.16626,-0.148682,0.104248,-0.033039,0.73389,-0.007383,0.678424
20037,NaN,9.83298,-0.598522,-0.741833,0.010248,0.012931,-0.010393,1.163818,-0.144287,0.108398,-0.03306,0.733915,-0.007397,0.678396
20038,NaN,9.835189,-0.57031,-0.719176,0.009698,0.014956,-0.012615,1.16626,-0.146484,0.108398,-0.033065,0.733933,-0.007409,0.678376
20039,NaN,9.840571,-0.571048,-0.771898,0.016327,0.01585,-0.011698,1.168213,-0.14209,0.108154,-0.033104,0.733948,-0.007397,0.678359
20040,NaN,9.845107,-0.620797,-0.790114,0.02087,0.014291,-0.010254,1.16626,-0.148682,0.108398,-0.033169,0.733965,-0.007366,0.678336
20041,NaN,9.827825,-0.417134,-0.709447,0.022504,0.013316,-0.011617,1.168457,-0.146484,0.108398,-0.033231,0.733987,-0.007333,0.67831
20042,NaN,9.788313,-0.477844,-0.709531,-0.005125,0.018924,-0.00672,1.168457,-0.146484,0.108398,-0.033208,0.733993,-0.007411,0.678304
20043,NaN,9.823652,-0.623636,-0.776051,0.002229,0.019663,-0.010361,1.168457,-0.146484,0.108398,-0.0332,0.733997,-0.007452,0.6783
20044,NaN,9.835109,-0.543086,-0.76475,0.004861,0.020091,-0.008664,1.164063,-0.150879,0.104248,-0.03321,0.733997,-0.007485,0.678299
20045,NaN,9.836431,-0.563937,-0.707105,0.01304,0.017794,-0.008969,1.166016,-0.144287,0.108398,-0.033246,0.734005,-0.007495,0.678288
20046,NaN,9.828237,-0.566808,-0.727827,0.011125,0.019779,-0.008718,1.16626,-0.148682,0.108398,-0.03327,0.734007,-0.007518,0.678285
20047,NaN,9.827309,-0.544423,-0.781668,0.017305,0.017248,-0.008632,1.163818,-0.146484,0.106201,-0.033323,0.734016,-0.007515,0.678273
20048,NaN,9.88631,-0.552626,-0.773805,0.008762,0.018335,-0.009304,1.170654,-0.144043,0.106201,-0.033339,0.734022,-0.00754,0.678265
20049,NaN,9.812063,-0.57179,-0.76746,0.011117,0.019776,-0.008718,1.16626,-0.146484,0.106201,-0.033369,0.734024,-0.007557,0.678261
20050,NaN,9.858281,-0.532958,-0.762287,0.011114,0.019775,-0.008718,1.164063,-0.148682,0.106445,-0.033398,0.734026,-0.007571,0.678258
20051,NaN,9.805191,-0.595511,-0.73035,0.004844,0.020084,-0.008668,1.16626,-0.148682,0.102051,-0.033404,0.734027,-0.00761,0.678255
20052,NaN,9.865091,-0.554911,-0.75663,0.013549,0.023434,-0.008269,1.168457,-0.144287,0.110596,-0.033432,0.734017,-0.007635,0.678265
20053,NaN,9.843286,-0.559524,-0.745274,0.004647,0.023312,-0.009919,1.163818,-0.144287,0.104004,-0.033433,0.734008,-0.007671,0.678274
20054,NaN,9.811213,-0.594777,-0.777882,0.007921,0.021363,-0.01264,1.16626,-0.148682,0.108398,-0.033441,0.734004,-0.007676,0.678278
20055,NaN,9.821703,-0.562887,-0.731848,0.006914,0.022533,-0.009193,1.164063,-0.148682,0.106445,-0.033453,0.733997,-0.007707,0.678284
20056,NaN,9.850376,-0.579971,-0.73709,0.010271,0.022803,-0.012052,1.16626,-0.150879,0.106445,-0.033465,0.733988,-0.007719,0.678293
20057,NaN,9.833982,-0.586169,-0.780027,0.011988,0.024046,-0.013551,1.164063,-0.153076,0.104248,-0.033481,0.733975,-0.007716,0.678307
20058,NaN,9.850878,-0.577524,-0.732283,0.005719,0.024353,-0.013506,1.164063,-0.150879,0.108643,-0.033461,0.733963,-0.007754,0.678321
20059,NaN,9.827211,-0.608675,-0.742134,0.016622,0.022133,-0.018741,1.170898,-0.150879,0.108643,-0.033477,0.733956,-0.007716,0.678328
20060,NaN,9.843094,-0.578236,-0.750303,0.022152,0.021986,-0.014225,1.170654,-0.144043,0.108398,-0.033527,0.733947,-0.00768,0.678335
20061,NaN,9.8452,-0.549757,-0.727032,0.019714,0.018324,-0.014674,1.164063,-0.148682,0.110596,-0.033568,0.733952,-0.007646,0.678328
20062,NaN,9.839011,-0.52485,-0.726335,0.015325,0.024309,-0.016409,1.164063,-0.148682,0.108398,-0.033594,0.733937,-0.007611,0.678344
20063,NaN,9.823633,-0.552342,-0.713747,0.013086,0.017419,-0.015605,1.163818,-0.146484,0.106201,-0.033608,0.733946,-0.007596,0.678333
20064,NaN,9.822009,-0.578218,-0.732889,0.013874,0.022053,-0.013798,1.172852,-0.144043,0.114746,-0.033627,0.733939,-0.007588,0.67834
20065,NaN,9.837842,-0.548264,-0.741131,0.015411,0.02144,-0.00851,1.16626,-0.146484,0.108398,-0.033673,0.733934,-0.007592,0.678343
20066,NaN,9.830724,-0.572603,-0.705754,0.016494,0.022484,-0.012095,1.166016,-0.14209,0.108154,-0.033727,0.733923,-0.007557,0.678352
20067,NaN,9.838281,-0.546522,-0.736575,0.015758,0.022647,-0.007536,1.16626,-0.146484,0.110596,-0.033777,0.733914,-0.007563,0.678359
20068,NaN,9.838477,-0.545866,-0.734448,0.013327,0.018985,-0.007985,1.170654,-0.144043,0.110596,-0.033826,0.733917,-0.00756,0.678354
20069,NaN,9.838681,-0.54512,-0.732257,0.011208,0.024193,-0.008996,1.16626,-0.150879,0.106445,-0.033855,0.733903,-0.007577,0.678367
20070,NaN,9.81324,-0.604266,-0.763247,0.013122,0.022209,-0.009239,1.168457,-0.146484,0.108398,-0.033893,0.733896,-0.00758,0.678374
20071,NaN,9.848248,-0.491289,-0.739794,0.008319,0.019687,-0.003774,1.16626,-0.148682,0.106445,-0.033929,0.733898,-0.007625,0.678369
20072,NaN,9.815408,-0.57605,-0.738026,0.007686,0.019486,-0.005861,1.171143,-0.155273,0.106689,-0.033955,0.733901,-0.007663,0.678364
20073,NaN,9.824731,-0.523303,-0.74809,0.004956,0.019417,-0.00092,1.161621,-0.148682,0.108398,-0.033989,0.733904,-0.00773,0.678358
20074,NaN,9.813938,-0.602899,-0.755316,0.006595,0.018442,-0.002276,1.164063,-0.150879,0.108643,-0.034018,0.73391,-0.007796,0.678349
20075,NaN,9.799422,-0.582919,-0.777629,0.008311,0.019684,-0.003773,1.16626,-0.146484,0.106201,-0.034054,0.733912,-0.007841,0.678345
20076,NaN,9.844545,-0.593164,-0.737769,0.012499,0.016928,-0.003282,1.16626,-0.148682,0.112793,-0.034104,0.733923,-0.007874,0.678331
20077,NaN,9.844695,-0.592888,-0.735997,0.010226,0.017701,-0.004014,1.163818,-0.146484,0.108398,-0.034147,0.733931,-0.007912,0.678319
20078,NaN,9.830168,-0.57295,-0.758535,0.010777,0.015684,-0.001785,1.168701,-0.150879,0.106445,-0.034208,0.733944,-0.007943,0.678301
20079,NaN,9.840281,-0.541595,-0.713124,0.013506,0.01575,-0.006723,1.168457,-0.146484,0.108398,-0.034253,0.733959,-0.007959,0.678283
20080,NaN,9.829509,-0.620853,-0.720565,0.014133,0.015951,-0.004636,1.168701,-0.153076,0.113037,-0.034308,0.733972,-0.007976,0.678265
20081,NaN,9.823197,-0.596918,-0.720584,0.021679,0.013462,-0.006993,1.168701,-0.153076,0.108643,-0.034383,0.733994,-0.007963,0.678239
20082,NaN,9.830758,-0.571263,-0.752135,0.020108,0.016653,-0.00578,1.166504,-0.153076,0.106445,-0.034462,0.734002,-0.007956,0.678226
20083,NaN,9.808839,-0.576417,-0.741484,0.020734,0.016853,-0.003692,1.16626,-0.150879,0.11084,-0.034544,0.734011,-0.007959,0.678212
20084,NaN,9.84398,-0.617597,-0.745425,0.013846,0.016955,-0.005752,1.164063,-0.150879,0.104248,-0.034593,0.73402,-0.007979,0.678199
20085,NaN,9.815617,-0.599043,-0.73632,0.015559,0.018195,-0.007248,1.16626,-0.146484,0.106201,-0.034644,0.734026,-0.007987,0.67819
20086,NaN,9.84432,-0.616558,-0.74178,0.020097,0.016649,-0.005778,1.16626,-0.146484,0.106201,-0.034711,0.734038,-0.007988,0.678174
20087,NaN,9.846209,-0.588767,-0.718855,0.023802,0.018123,-0.007655,1.16626,-0.150879,0.106445,-0.034791,0.734043,-0.007966,0.678165
20088,NaN,9.788566,-0.530855,-0.758253,0.013908,0.019167,-0.005896,1.168701,-0.153076,0.108643,-0.034838,0.734046,-0.007983,0.678159
20089,NaN,9.844844,-0.615148,-0.735979,0.016525,0.019603,-0.004188,1.164063,-0.148682,0.106445,-0.034903,0.734047,-0.007999,0.678154
20090,NaN,9.803548,-0.549855,-0.729846,0.016595,0.021819,-0.004331,1.16626,-0.146484,0.110596,-0.034966,0.734039,-0.008014,0.678159
20091,NaN,9.840417,-0.563992,-0.712278,0.013788,0.01954,0.000748,1.161865,-0.155273,0.106689,-0.035038,0.734041,-0.008058,0.678153
20092,NaN,9.810333,-0.573331,-0.723904,0.013304,0.023768,-0.001627,1.16626,-0.148682,0.110596,-0.035101,0.734027,-0.008092,0.678165
20093,NaN,9.861139,-0.585992,-0.737601,0.014204,0.022964,0.001577,1.166504,-0.155273,0.108643,-0.035176,0.734017,-0.008138,0.678171
20094,NaN,9.839209,-0.591762,-0.726382,0.004313,0.024009,0.00333,1.16626,-0.146484,0.110596,-0.035226,0.734003,-0.008218,0.678183
20095,NaN,9.822071,-0.648219,-0.734479,0.013644,0.024974,-0.000653,1.16626,-0.150879,0.108643,-0.035292,0.733986,-0.008258,0.678197
20096,NaN,9.830788,-0.574512,-0.800042,0.011301,0.023529,-0.001247,1.168457,-0.148682,0.106445,-0.035356,0.733972,-0.008288,0.678208
20097,NaN,9.809522,-0.601057,-0.732922,0.008404,0.024096,-0.004073,1.161865,-0.150879,0.11084,-0.035391,0.73396,-0.008333,0.678219
20098,NaN,9.812869,-0.678756,-0.770966,0.005785,0.023657,-0.005783,1.168945,-0.157471,0.108887,-0.035415,0.733948,-0.008372,0.67823
20099,NaN,9.832043,-0.594586,-0.73692,0.01574,0.024825,-0.007673,1.164063,-0.153076,0.108643,-0.035465,0.733931,-0.008379,0.678246
20100,NaN,9.808528,-0.626509,-0.746739,0.008166,0.022504,-0.011689,1.166504,-0.155273,0.115234,-0.035472,0.733923,-0.0084,0.678254
20101,NaN,9.838969,-0.616254,-0.730593,0.013046,0.02217,-0.009238,1.168945,-0.157471,0.111084,-0.035507,0.733916,-0.00841,0.678259
20102,NaN,9.800888,-0.628343,-0.765068,0.023603,0.018731,-0.01539,1.164063,-0.148682,0.106445,-0.03557,0.733915,-0.008353,0.678258
20103,NaN,9.859922,-0.635706,-0.756113,0.021745,0.022926,-0.015302,1.168701,-0.150879,0.108643,-0.035616,0.733905,-0.008311,0.678267
20104,NaN,9.8316,-0.616378,-0.746703,0.02792,0.020406,-0.015171,1.170898,-0.148438,0.106445,-0.035687,0.733901,-0.008241,0.678268
20105,NaN,9.849068,-0.558786,-0.734126,0.021597,0.018492,-0.015012,1.168945,-0.157471,0.108887,-0.035733,0.733905,-0.0082,0.678262
20106,NaN,9.828808,-0.53539,-0.702104,-0.007801,0.025672,-0.016735,1.16626,-0.146484,0.108398,-0.035666,0.73389,-0.008252,0.678281
