// Start Time: Unknown
// Update Rate: 100.0Hz
// Filter Profile: human (46.1)
// Option Flags: AHS Disabled ICC Disabled 
// Firmware Version: 4.3.4
PacketCounter,SampleTimeFine,Acc_X,Acc_Y,Acc_Z,Gyr_X,Gyr_Y,Gyr_Z,Mag_X,Mag_Y,Mag_Z,Quat_q0,Quat_q1,Quat_q2,Quat_q3
19741,,9.901538,1.004403,0.346893,0.003874,0.010333,-0.033095,1.107178,0.438965,0.026855,-0.531624,0.412912,0.557797,0.485532
19742,,9.864895,1.009032,0.279874,-0.007385,0.011489,-0.027156,1.104736,0.441162,0.026611,-0.531579,0.412885,0.557783,0.485621
19743,,9.834821,1.026026,0.271179,-0.011824,0.013906,-0.027407,1.098145,0.441162,0.028809,-0.531530,0.412863,0.557750,0.485731
19744,,9.864420,1.044585,0.265941,-0.016861,0.015054,-0.029300,1.109375,0.438965,0.029053,-0.531471,0.412846,0.557707,0.485860
19745,,9.861696,1.098209,0.287856,-0.024259,0.019678,-0.030170,1.104736,0.443359,0.026611,-0.531402,0.412839,0.557630,0.486030
19746,,9.828859,1.105769,0.333733,-0.033452,0.019399,-0.028109,1.109131,0.443359,0.031006,-0.531323,0.412859,0.557533,0.486210
19747,,9.857943,1.034014,0.379656,-0.037907,0.017538,-0.032155,1.109131,0.443359,0.028809,-0.531215,0.412886,0.557434,0.486418
19748,,9.884624,1.012998,0.445687,-0.029890,0.022036,-0.028548,1.104980,0.438965,0.022461,-0.531149,0.412889,0.557340,0.486595
19749,,9.824563,1.014004,0.444738,-0.021594,0.020211,-0.025888,1.109131,0.441162,0.031006,-0.531107,0.412875,0.557270,0.486733
19750,,9.844942,1.010460,0.435639,-0.015374,0.018426,-0.032361,1.109375,0.436768,0.026855,-0.531053,0.412837,0.557228,0.486873
19751,,9.853683,1.035632,0.442224,-0.012401,0.022281,-0.029294,1.106934,0.443359,0.028809,-0.531017,0.412799,0.557170,0.487011
19752,,9.844277,1.046389,0.423123,-0.011224,0.018753,-0.028453,1.102539,0.441162,0.026611,-0.530981,0.412761,0.557129,0.487129
19753,,9.843796,1.018909,0.441795,-0.011229,0.016962,-0.027100,1.104736,0.441162,0.031006,-0.530947,0.412723,0.557095,0.487237
19754,,9.843557,1.051609,0.426919,-0.010335,0.019757,-0.025309,1.111572,0.438965,0.033203,-0.530924,0.412689,0.557047,0.487346
19755,,9.825077,1.039881,0.403202,0.000635,0.019580,-0.026229,1.106934,0.441162,0.035400,-0.530910,0.412637,0.557015,0.487442
19756,,9.893720,1.126627,0.379431,-0.003813,0.020197,-0.025130,1.106934,0.441162,0.031006,-0.530902,0.412585,0.556981,0.487533
19757,,9.866238,1.122768,0.334907,-0.015368,0.026952,-0.024756,1.102783,0.438965,0.028809,-0.530878,0.412561,0.556887,0.487687
19758,,9.824314,1.137482,0.359946,-0.021306,0.024193,-0.020589,1.111328,0.441162,0.033203,-0.530856,0.412558,0.556791,0.487823
19759,,9.841987,1.123494,0.405084,-0.027830,0.023745,-0.020769,1.102539,0.441162,0.033203,-0.530814,0.412579,0.556674,0.487984
19760,,9.883165,1.082726,0.402277,-0.027534,0.025272,-0.020620,1.109131,0.441162,0.031006,-0.530782,0.412590,0.556560,0.488140
19761,,9.820344,1.073150,0.455307,-0.025459,0.026333,-0.019340,1.100586,0.436768,0.031006,-0.530756,0.412601,0.556440,0.488297
19762,,9.870638,1.054384,0.456925,-0.022500,0.022341,-0.017369,1.109131,0.441162,0.035400,-0.530734,0.412615,0.556339,0.488424
19763,,9.852287,1.041830,0.433745,-0.009153,0.026557,-0.018202,1.106934,0.441162,0.031006,-0.530744,0.412588,0.556253,0.488533
19764,,9.879194,1.110050,0.449924,-0.011828,0.024913,-0.014624,1.104492,0.445557,0.035156,-0.530758,0.412575,0.556166,0.488629
19765,,9.881711,1.090870,0.415768,-0.012424,0.027912,-0.012464,1.106934,0.441162,0.033203,-0.530781,0.412563,0.556062,0.488732
19766,,9.842606,1.084097,0.403963,-0.014499,0.026848,-0.013744,1.104980,0.438965,0.031006,-0.530796,0.412555,0.555961,0.488836
19767,,9.842195,1.024896,0.440014,-0.011539,0.022857,-0.011774,1.104492,0.449951,0.032959,-0.530813,0.412554,0.555873,0.488920
19768,,9.862805,1.019728,0.431372,-0.002645,0.025900,-0.010156,1.104492,0.447754,0.032959,-0.530859,0.412526,0.555796,0.488980
19769,,9.829946,1.055509,0.460795,0.003588,0.028404,-0.012812,1.106934,0.443359,0.035156,-0.530921,0.412458,0.555740,0.489033
19770,,9.838833,1.109077,0.451118,-0.003239,0.022841,-0.010452,1.100098,0.445557,0.035156,-0.530957,0.412439,0.555671,0.489090
19771,,9.838523,1.079909,0.470111,-0.001756,0.022636,-0.010816,1.102295,0.445557,0.037354,-0.530992,0.412413,0.555605,0.489147
19772,,9.829298,1.058493,0.467723,0.002384,0.021182,-0.005553,1.102539,0.441162,0.033203,-0.531047,0.412397,0.555544,0.489171
19773,,9.847068,1.073651,0.495677,-0.005606,0.022036,-0.013232,1.102539,0.438965,0.037354,-0.531069,0.412375,0.555476,0.489243
19774,,9.796036,1.034667,0.532019,-0.002059,0.017525,-0.008266,1.106934,0.443359,0.032959,-0.531097,0.412372,0.555420,0.489279
19775,,9.831777,1.063960,0.585325,-0.002355,0.015996,-0.008415,1.104736,0.443359,0.037354,-0.531120,0.412373,0.555364,0.489317
19776,,9.843534,1.066474,0.554425,-0.004138,0.012880,-0.006852,1.106934,0.438965,0.041748,-0.531135,0.412391,0.555311,0.489345
19777,,9.813517,1.051112,0.562177,0.002090,0.011805,-0.006807,1.100342,0.441162,0.033203,-0.531147,0.412410,0.555260,0.489374
19778,,9.864135,1.061452,0.545638,0.005935,0.010615,-0.003040,1.109131,0.441162,0.033203,-0.531186,0.412416,0.555231,0.489360
19779,,9.881799,1.022717,0.440641,0.011273,0.014591,-0.003681,1.104736,0.441162,0.033203,-0.531251,0.412390,0.555210,0.489335
19780,,9.840077,1.065727,0.447216,0.022245,0.012646,-0.003225,1.109131,0.445557,0.032959,-0.531329,0.412348,0.555215,0.489280
19781,,9.884844,1.093470,0.355954,0.020748,0.017115,0.000943,1.107178,0.438965,0.033203,-0.531431,0.412302,0.555202,0.489222
19782,,9.840093,1.126632,0.416474,0.014539,0.017501,-0.005606,1.104736,0.438965,0.035400,-0.531500,0.412262,0.555181,0.489205
19783,,9.887800,1.157256,0.437173,0.002071,0.012490,-0.000307,1.104736,0.441162,0.033203,-0.531545,0.412281,0.555131,0.489197
19784,,9.857443,1.020535,0.512006,-0.005933,0.014027,-0.001492,1.104980,0.438965,0.031006,-0.531573,0.412316,0.555060,0.489219
19785,,9.806624,1.010733,0.530854,0.003846,0.012025,0.000829,1.102539,0.438965,0.033203,-0.531630,0.412323,0.555023,0.489191
19786,,9.848429,1.028480,0.492854,0.014227,0.007024,0.000993,1.102539,0.438965,0.037354,-0.531686,0.412328,0.555015,0.489136
19787,,9.848491,1.058764,0.476815,0.025795,0.011714,-0.000945,1.104980,0.438965,0.031006,-0.531777,0.412281,0.555028,0.489061
19788,,9.860427,1.060490,0.445259,0.024891,0.009607,0.003763,1.102539,0.438965,0.031006,-0.531869,0.412259,0.555033,0.488974
19789,,9.893134,1.025719,0.419585,0.020154,0.014055,0.000651,1.100342,0.441162,0.037354,-0.531969,0.412213,0.555036,0.488901
19790,,9.872327,1.062142,0.414876,0.019563,0.010997,0.000355,1.104980,0.436768,0.037598,-0.532046,0.412192,0.555031,0.488841
19791,,9.860286,1.060536,0.448257,0.008301,0.013202,-0.001609,1.106934,0.441162,0.035400,-0.532097,0.412192,0.554993,0.488828
19792,,9.872099,1.032045,0.434037,0.003243,0.015025,0.002981,1.098389,0.434570,0.031250,-0.532158,0.412212,0.554933,0.488814
19793,,9.872056,1.031834,0.435512,-0.003571,0.014831,0.001281,1.102539,0.443359,0.039551,-0.532208,0.412235,0.554868,0.488814
19794,,9.806100,1.010609,0.540683,-0.005047,0.018611,-0.001057,1.102539,0.441162,0.033203,-0.532251,0.412257,0.554786,0.488841
19795,,9.865658,1.012702,0.545763,0.011868,0.008005,-0.003134,1.111328,0.441162,0.037598,-0.532297,0.412247,0.554781,0.488805
19796,,9.859595,0.969962,0.505389,0.018061,0.015468,0.004525,1.104736,0.438965,0.033203,-0.532393,0.412230,0.554753,0.488747
19797,,9.761120,1.043803,0.602820,0.028466,0.009772,-0.001801,1.102539,0.441162,0.033203,-0.532480,0.412181,0.554778,0.488665
19798,,9.850775,1.091916,0.583549,0.019852,-0.000687,0.003461,1.102539,0.443359,0.039551,-0.532532,0.412196,0.554799,0.488571
19799,,9.823482,0.964851,0.603814,0.004153,0.007494,-0.001480,1.106934,0.443359,0.039551,-0.532565,0.412211,0.554775,0.488550
19800,,9.844351,0.958725,0.592936,0.022234,-0.002364,0.001095,1.104980,0.434814,0.039795,-0.532612,0.412217,0.554811,0.488453
19801,,9.892409,0.965617,0.463374,0.027280,0.001867,-0.001041,1.106934,0.438965,0.037598,-0.532666,0.412204,0.554841,0.488371
19802,,9.874775,1.011897,0.403749,0.033216,0.001050,-0.002482,1.109131,0.441162,0.033203,-0.532736,0.412163,0.554902,0.488260
19803,,9.857128,1.058246,0.344160,0.023730,0.002792,-0.003316,1.106934,0.441162,0.031006,-0.532789,0.412139,0.554937,0.488182
19804,,9.848233,1.066263,0.323166,0.009771,0.007632,0.002079,1.100586,0.436768,0.031006,-0.532840,0.412157,0.554914,0.488138
19805,,9.848226,1.066016,0.324193,0.021320,0.016587,0.003945,1.104980,0.434814,0.037598,-0.532958,0.412108,0.554908,0.488057
19806,,9.713934,1.195360,0.484642,-0.003249,0.004241,-0.003482,1.104980,0.436768,0.033203,-0.532960,0.412154,0.554873,0.488056
19807,,10.065402,1.073555,0.517057,-0.030228,-0.005729,-0.002043,1.109131,0.443359,0.035156,-0.532882,0.412299,0.554796,0.488106
19808,,9.864484,0.749257,0.536750,0.009493,0.013252,-0.003472,1.106934,0.441162,0.035400,-0.532935,0.412289,0.554769,0.488089
19809,,9.769533,0.923578,0.529184,0.044473,-0.001158,-0.000497,1.102783,0.436768,0.031006,-0.533028,0.412223,0.554862,0.487936
19810,,9.829713,1.046351,0.465296,0.034992,0.002370,-0.002686,1.113770,0.438965,0.035400,-0.533104,0.412173,0.554925,0.487824
19811,,9.853656,1.134156,0.515196,0.009508,-0.004230,-0.004310,1.107178,0.434814,0.033447,-0.533111,0.412197,0.554950,0.487767
19812,,9.787875,1.059654,0.486580,-0.002654,-0.002336,-0.002931,1.111572,0.434814,0.033447,-0.533097,0.412258,0.554934,0.487750
19813,,9.826433,0.923606,0.420081,0.001189,-0.001733,-0.000506,1.102539,0.441162,0.033203,-0.533099,0.412315,0.554920,0.487714
19814,,9.826426,0.923923,0.419549,0.018407,-0.007243,-0.005116,1.107178,0.438965,0.033203,-0.533109,0.412326,0.554972,0.487634
19815,,9.895432,1.039005,0.376693,0.027885,0.000647,-0.004538,1.111572,0.438965,0.033203,-0.533169,0.412282,0.555035,0.487535
19816,,9.886630,1.077571,0.338507,0.020473,0.005241,-0.005444,1.102539,0.438965,0.033203,-0.533217,0.412257,0.555060,0.487476
19817,,9.844908,1.120696,0.343847,-0.000577,0.002301,-0.004350,1.104980,0.436768,0.037598,-0.533221,0.412289,0.555044,0.487461
19818,,9.844585,1.060948,0.377987,-0.026655,0.002275,-0.006528,1.111572,0.437012,0.033447,-0.533161,0.412394,0.554965,0.487530
19819,,9.844265,1.001220,0.412118,-0.023692,0.000079,-0.005894,1.107178,0.438965,0.035400,-0.533099,0.412501,0.554892,0.487589
19820,,9.829131,1.020720,0.481714,-0.011541,0.006034,-0.006181,1.109375,0.434814,0.035645,-0.533082,0.412556,0.554838,0.487622
19821,,9.843989,0.972098,0.430165,-0.017772,0.005321,-0.004888,1.104980,0.436768,0.035400,-0.533050,0.412637,0.554765,0.487673
19822,,9.852893,0.994981,0.435161,-0.007969,0.002622,-0.009051,1.111816,0.432617,0.035645,-0.533023,0.412683,0.554735,0.487697
19823,,9.879625,1.032400,0.466069,-0.016575,0.007161,-0.008098,1.107178,0.436768,0.033203,-0.532991,0.412749,0.554664,0.487756
19824,,9.873456,0.960094,0.442549,-0.026064,0.007113,-0.007585,1.107178,0.436768,0.035400,-0.532943,0.412837,0.554575,0.487836
19825,,9.819510,0.971573,0.497788,-0.019834,0.007826,-0.008876,1.106934,0.441162,0.039551,-0.532909,0.412899,0.554504,0.487901
19826,,9.870159,0.982292,0.481191,-0.017451,0.006148,-0.011240,1.104980,0.436768,0.035400,-0.532867,0.412956,0.554446,0.487964
19827,,9.882060,0.984914,0.449788,-0.016573,0.008946,-0.009447,1.106934,0.441162,0.035400,-0.532836,0.413010,0.554376,0.488033
19828,,9.819191,1.004665,0.483698,-0.008248,0.008242,-0.014601,1.107178,0.434814,0.033447,-0.532811,0.413028,0.554341,0.488084
19829,,9.848890,1.022104,0.477928,-0.017135,0.003403,-0.014891,1.104980,0.436768,0.033203,-0.532757,0.413074,0.554304,0.488146
19830,,9.869322,0.926704,0.518019,-0.026041,0.004620,-0.012733,1.109619,0.430420,0.037842,-0.532690,0.413154,0.554232,0.488234
19831,,9.827366,0.940251,0.540570,-0.011809,0.003805,-0.012825,1.102539,0.438965,0.039551,-0.532649,0.413199,0.554195,0.488282
19832,,9.898817,0.915016,0.529349,-0.004097,0.002532,-0.013124,1.109375,0.432617,0.039795,-0.532621,0.413224,0.554183,0.488306
19833,,9.827166,0.973034,0.524544,0.000653,0.005240,-0.015405,1.109619,0.430420,0.033447,-0.532595,0.413234,0.554168,0.488342
19834,,9.856966,1.020744,0.501468,0.006291,-0.000674,-0.014291,1.104736,0.441162,0.037354,-0.532576,0.413236,0.554193,0.488334
19835,,9.889775,1.017697,0.458281,0.000649,0.003452,-0.014055,1.106934,0.438965,0.039551,-0.532559,0.413242,0.554192,0.488348
19836,,9.847718,1.001313,0.497086,-0.000523,-0.002663,-0.014647,1.106934,0.438965,0.037598,-0.532519,0.413266,0.554206,0.488355
19837,,9.859602,1.004659,0.464726,-0.002293,0.001372,-0.018485,1.102783,0.436768,0.039795,-0.532472,0.413278,0.554206,0.488396
19838,,9.829515,0.960014,0.487896,-0.008822,-0.004452,-0.014643,1.102539,0.438965,0.037354,-0.532410,0.413329,0.554204,0.488422
19839,,9.888998,0.963685,0.491743,-0.005553,0.002034,-0.019264,1.102539,0.441162,0.035156,-0.532359,0.413343,0.554199,0.488473
19840,,9.858972,0.949422,0.498125,0.006609,-0.003413,-0.017942,1.107178,0.432617,0.037842,-0.532324,0.413341,0.554239,0.488467
19841,,9.879786,0.975260,0.469977,0.009870,-0.002289,-0.018512,1.107178,0.438965,0.035400,-0.532297,0.413324,0.554284,0.488458
19842,,9.852989,1.000752,0.405746,0.020235,0.000571,-0.017229,1.111572,0.437012,0.031250,-0.532303,0.413278,0.554345,0.488422
19843,,9.831940,1.038842,0.399693,0.013421,-0.001423,-0.017584,1.107178,0.436768,0.033203,-0.532293,0.413247,0.554401,0.488395
19844,,9.870416,1.018813,0.431469,-0.000518,0.004479,-0.020045,1.104736,0.438965,0.037598,-0.532260,0.413239,0.554407,0.488431
19845,,9.843555,1.014018,0.384567,0.003322,0.001516,-0.014920,1.102539,0.438965,0.037354,-0.532241,0.413239,0.554420,0.488437
19846,,9.870028,1.022311,0.432071,0.002742,0.005604,-0.020616,1.104736,0.441162,0.035156,-0.532216,0.413218,0.554432,0.488468
19847,,9.869830,1.024006,0.432582,0.005971,0.005643,-0.013337,1.109619,0.432617,0.035645,-0.532218,0.413202,0.554440,0.488472
19848,,9.869635,0.995380,0.449766,0.006291,0.002899,-0.016988,1.104980,0.432617,0.039795,-0.532202,0.413188,0.554460,0.488478
19849,,9.857413,1.025532,0.465584,0.009843,0.005555,-0.017410,1.104980,0.436768,0.033203,-0.532193,0.413169,0.554470,0.488492
19850,,9.818500,1.019017,0.451208,0.011618,0.006882,-0.017622,1.107178,0.436768,0.033203,-0.532197,0.413130,0.554494,0.488493
19851,,9.857025,1.089266,0.432868,0.006873,0.004169,-0.015341,1.109619,0.432617,0.037842,-0.532196,0.413108,0.554516,0.488489
19852,,9.794000,1.049176,0.499788,-0.002586,0.003400,-0.021331,1.109375,0.434814,0.035645,-0.532153,0.413104,0.554522,0.488532
19853,,9.835651,1.008739,0.494941,-0.007331,0.000686,-0.019050,1.100342,0.441162,0.039551,-0.532092,0.413138,0.554508,0.488586
19854,,9.891921,1.003159,0.552664,0.002740,0.002027,-0.017913,1.111572,0.437012,0.041992,-0.532064,0.413133,0.554524,0.488603
19855,,9.844161,1.004431,0.516496,0.010744,0.000511,-0.016712,1.107178,0.434814,0.037598,-0.532039,0.413126,0.554546,0.488611
19856,,9.823063,1.012228,0.527207,0.013424,-0.003205,-0.016227,1.106934,0.441162,0.041748,-0.532022,0.413110,0.554598,0.488582
19857,,9.852706,1.060195,0.503326,0.016393,-0.005391,-0.015594,1.102539,0.438965,0.035400,-0.531997,0.413107,0.554648,0.488557
19858,,9.855758,1.041198,0.465850,0.013424,-0.004992,-0.014875,1.104736,0.438965,0.039551,-0.531979,0.413099,0.554702,0.488521
19859,,9.849942,0.999928,0.424065,0.015197,-0.001877,-0.016437,1.100342,0.438965,0.033203,-0.531966,0.413076,0.554751,0.488499
19860,,9.846626,1.022044,0.460156,0.017880,-0.009164,-0.013249,1.109375,0.436768,0.033203,-0.531949,0.413071,0.554824,0.488438
19861,,9.837610,1.031307,0.438163,0.020811,0.000067,-0.014224,1.104980,0.436768,0.035400,-0.531968,0.413026,0.554887,0.488385
19862,,9.846338,1.055012,0.442083,0.028238,-0.006289,-0.011965,1.102539,0.441162,0.035156,-0.531984,0.412990,0.554975,0.488298
19863,,9.825282,1.062590,0.452078,0.022331,-0.007981,-0.015674,1.104736,0.441162,0.033203,-0.531974,0.412961,0.555061,0.488236
19864,,9.846110,1.057927,0.440183,0.013715,-0.007039,-0.012022,1.104980,0.434814,0.033447,-0.531958,0.412965,0.555116,0.488188
19865,,9.840364,1.016210,0.398192,0.012519,-0.005310,-0.011517,1.100342,0.441162,0.031006,-0.531949,0.412965,0.555164,0.488143
19866,,9.816066,1.074167,0.428510,0.014874,-0.002706,-0.010086,1.104736,0.441162,0.033203,-0.531952,0.412961,0.555206,0.488095
19867,,9.875599,1.077513,0.432057,0.013679,-0.000977,-0.009580,1.107178,0.436768,0.035400,-0.531967,0.412943,0.555250,0.488044
19868,,9.866670,1.056208,0.427222,0.006581,-0.004512,-0.010080,1.102539,0.441162,0.033203,-0.531948,0.412965,0.555276,0.488016
19869,,9.899692,0.992694,0.417492,0.016934,0.001937,-0.011504,1.109375,0.438965,0.031006,-0.531964,0.412939,0.555313,0.487979
19870,,9.917232,1.038458,0.426611,0.024611,0.006747,-0.009361,1.107178,0.436768,0.031250,-0.532015,0.412888,0.555352,0.487922
19871,,9.848573,1.044889,0.401680,0.014545,0.003610,-0.009142,1.104980,0.436768,0.035400,-0.532042,0.412868,0.555378,0.487880
19872,,9.848463,1.045873,0.401803,0.009222,0.001404,-0.009855,1.100342,0.443359,0.032959,-0.532045,0.412869,0.555395,0.487856
19873,,9.878228,1.032807,0.412412,0.000896,0.003877,-0.006060,1.104980,0.436768,0.035400,-0.532048,0.412893,0.555378,0.487852
19874,,9.848351,1.017414,0.419401,0.001794,0.005970,-0.010767,1.111572,0.434814,0.033447,-0.532047,0.412900,0.555367,0.487860
19875,,9.845010,1.039082,0.456556,0.008026,0.003133,-0.009350,1.109375,0.438965,0.033203,-0.532049,0.412910,0.555366,0.487849
19876,,9.856946,1.041632,0.424461,0.001800,0.002401,-0.008062,1.104736,0.438965,0.033203,-0.532044,0.412934,0.555359,0.487843
19877,,9.856938,1.012337,0.441816,-0.002369,0.006313,-0.008194,1.104980,0.438965,0.028809,-0.532041,0.412958,0.555330,0.487859
19878,,9.847922,1.021009,0.420734,0.002416,-0.000603,-0.010208,1.109131,0.443359,0.037354,-0.532024,0.412982,0.555336,0.487850
19879,,9.865541,1.036473,0.446752,0.002376,0.005461,-0.007771,1.104736,0.443359,0.035156,-0.532031,0.412993,0.555323,0.487849
19880,,9.856518,1.045081,0.425926,-0.004434,0.005236,-0.009478,1.104980,0.436768,0.033203,-0.532017,0.413023,0.555296,0.487869
19881,,9.847599,1.023615,0.421952,-0.009464,0.002774,-0.008694,1.102539,0.438965,0.037354,-0.531988,0.413071,0.555261,0.487900
19882,,9.847604,0.994289,0.439339,-0.005627,0.005181,-0.007622,1.107178,0.436768,0.035400,-0.531977,0.413109,0.555226,0.487919
19883,,9.835343,1.023550,0.455207,-0.003237,0.003507,-0.009982,1.107178,0.436768,0.035400,-0.531954,0.413145,0.555199,0.487945
19884,,9.868325,0.990153,0.429285,-0.005305,0.004214,-0.012619,1.107178,0.434814,0.035400,-0.531928,0.413171,0.555178,0.487974
19885,,9.868199,0.991260,0.429625,0.002993,0.002458,-0.009917,1.104736,0.438965,0.039551,-0.531916,0.413195,0.555168,0.487980
19886,,9.843874,1.019015,0.477510,0.005962,0.002060,-0.010633,1.104980,0.436768,0.035400,-0.531913,0.413201,0.555177,0.487968
19887,,9.876762,1.015761,0.434360,-0.002620,0.000502,-0.012129,1.107178,0.436768,0.035400,-0.531875,0.413240,0.555160,0.487996
19888,,9.858947,1.002236,0.408654,-0.000265,0.001325,-0.009345,1.102539,0.438965,0.035400,-0.531860,0.413268,0.555153,0.487996
19889,,9.846540,1.061703,0.407380,-0.008272,0.002825,-0.010550,1.102783,0.434570,0.035400,-0.531825,0.413314,0.555119,0.488033
19890,,9.828852,1.017991,0.398817,-0.018047,0.001210,-0.010190,1.107178,0.436768,0.029053,-0.531771,0.413388,0.555070,0.488085
19891,,9.846537,1.003620,0.442016,-0.016862,0.004832,-0.014749,1.104980,0.436768,0.037598,-0.531722,0.413433,0.555027,0.488150
19892,,9.876258,0.991099,0.452986,-0.005307,0.004213,-0.012618,1.104980,0.438965,0.031006,-0.531696,0.413458,0.555006,0.488179
19893,,9.867342,0.969969,0.448930,-0.000561,0.003364,-0.012194,1.106934,0.438965,0.039551,-0.531679,0.413474,0.554997,0.488196
19894,,9.872831,0.984064,0.507511,0.002983,0.006028,-0.012619,1.107178,0.432617,0.035645,-0.531675,0.413474,0.554992,0.488206
19895,,9.824834,1.044761,0.437879,0.013960,0.004134,-0.012130,1.109619,0.432617,0.033447,-0.531680,0.413464,0.555003,0.488197
19896,,9.866773,1.003882,0.433055,0.005091,0.001041,-0.013772,1.102539,0.441162,0.033203,-0.531664,0.413466,0.555018,0.488194
19897,,9.884299,1.019901,0.459032,0.003602,0.003023,-0.014766,1.102783,0.434814,0.037598,-0.531649,0.413465,0.555027,0.488202
19898,,9.836743,0.990278,0.440041,0.001502,0.004440,-0.010909,1.100342,0.441162,0.035156,-0.531643,0.413476,0.555019,0.488209
19899,,9.845352,1.013892,0.444976,0.010692,0.006568,-0.014262,1.104980,0.436768,0.035400,-0.531649,0.413451,0.555030,0.488210
19900,,9.832817,1.073736,0.443789,0.007154,0.002119,-0.012486,1.107178,0.438965,0.033203,-0.531644,0.413449,0.555045,0.488201
19901,,9.841757,1.037100,0.482175,0.008931,0.001668,-0.011346,1.109375,0.438965,0.031006,-0.531642,0.413448,0.555060,0.488186
19902,,9.874651,1.034124,0.438996,0.011317,0.001780,-0.015056,1.107178,0.436768,0.031250,-0.531639,0.413428,0.555092,0.488170
19903,,9.874844,0.975326,0.472875,0.011900,0.001273,-0.012061,1.107178,0.436768,0.035400,-0.531646,0.413412,0.555124,0.488140
19904,,9.844819,0.990378,0.462480,0.021673,0.002896,-0.012418,1.107178,0.438965,0.028809,-0.531673,0.413370,0.555173,0.488091
19905,,9.826672,1.037383,0.402552,0.023207,-0.003367,-0.015212,1.107178,0.438965,0.033203,-0.531681,0.413328,0.555249,0.488030
19906,,9.870565,1.090605,0.458264,0.005998,-0.000440,-0.015771,1.106934,0.441162,0.031006,-0.531659,0.413326,0.555275,0.488027
19907,,9.823225,1.031074,0.455694,0.000972,-0.002909,-0.014988,1.111572,0.438965,0.037598,-0.531623,0.413341,0.555297,0.488029
19908,,9.844071,1.026448,0.444525,0.001549,-0.001631,-0.013345,1.111572,0.434814,0.031250,-0.531593,0.413360,0.555310,0.488029
19909,,9.843959,1.027654,0.444220,0.009849,-0.003374,-0.010639,1.107178,0.438965,0.033203,-0.531575,0.413382,0.555331,0.488007
19910,,9.876903,1.024442,0.400518,0.017850,-0.003081,-0.010785,1.106934,0.441162,0.031006,-0.531582,0.413369,0.555383,0.487952
19911,,9.876773,1.025827,0.400186,0.020514,0.000341,-0.015703,1.104736,0.438965,0.035400,-0.531592,0.413323,0.555444,0.487910
19912,,9.864354,1.055798,0.415274,0.008972,-0.002620,-0.015131,1.098145,0.438965,0.028809,-0.531571,0.413320,0.555481,0.487892
19913,,9.852384,1.025406,0.464116,0.001270,-0.004948,-0.012135,1.104980,0.436768,0.029053,-0.531540,0.413344,0.555506,0.487879
19914,,9.852495,0.996521,0.480723,0.001840,-0.001888,-0.011846,1.104736,0.441162,0.035156,-0.531514,0.413367,0.555517,0.487874
19915,,9.855495,1.007196,0.426810,0.004517,-0.002030,-0.014058,1.104980,0.436768,0.033203,-0.531489,0.413374,0.555542,0.487867
19916,,9.860950,1.021638,0.484634,0.007487,-0.002423,-0.014773,1.107178,0.438965,0.033203,-0.531467,0.413376,0.555575,0.487853
19917,,9.843176,1.008506,0.458271,0.009602,-0.007407,-0.015921,1.104980,0.438965,0.031006,-0.531429,0.413384,0.555624,0.487831
19918,,9.833879,1.047774,0.419176,0.008694,-0.005933,-0.013921,1.107178,0.434814,0.033447,-0.531401,0.413394,0.555667,0.487804
19919,,9.893367,1.051886,0.422474,0.010463,-0.004599,-0.014135,1.107178,0.436768,0.039795,-0.531379,0.413397,0.555709,0.487778
19920,,9.866908,1.016181,0.391771,0.006008,-0.004010,-0.013061,1.109375,0.438965,0.031006,-0.531353,0.413411,0.555738,0.487761
19921,,9.836846,1.031305,0.380834,0.010170,-0.004348,-0.015632,1.107178,0.438965,0.031006,-0.531317,0.413422,0.555770,0.487754
19922,,9.827498,1.070579,0.341989,0.000684,-0.004451,-0.015127,1.109131,0.441162,0.033203,-0.531274,0.413446,0.555793,0.487756
19923,,9.857286,1.058338,0.352252,-0.007949,0.000037,-0.014191,1.106934,0.441162,0.031006,-0.531224,0.413486,0.555776,0.487793
19924,,9.866350,1.022009,0.390657,-0.004980,-0.000355,-0.014906,1.102539,0.438965,0.033203,-0.531181,0.413516,0.555774,0.487818
19925,,9.878233,1.025185,0.358397,-0.001726,0.000784,-0.015477,1.104736,0.438965,0.035400,-0.531146,0.413530,0.555776,0.487841
19926,,9.845033,1.031024,0.401858,0.001811,0.003453,-0.015904,1.100342,0.438965,0.028809,-0.531125,0.413530,0.555782,0.487858
19927,,9.832822,1.030851,0.434464,0.003588,0.003007,-0.014764,1.107178,0.438965,0.028809,-0.531110,0.413526,0.555791,0.487867
19928,,9.832670,1.032166,0.434768,0.004457,0.004035,-0.011625,1.104736,0.438965,0.035400,-0.531107,0.413529,0.555793,0.487867
19929,,9.841173,1.055991,0.439455,0.006265,0.002866,-0.016976,1.102539,0.438965,0.033203,-0.531089,0.413516,0.555810,0.487877
19930,,9.840720,1.087470,0.422704,0.002689,0.002700,-0.011411,1.104736,0.443359,0.032959,-0.531079,0.413527,0.555811,0.487878
19931,,9.870822,1.045006,0.450299,-0.002918,0.000725,-0.013621,1.104980,0.438965,0.031006,-0.531044,0.413551,0.555806,0.487902
19932,,9.849701,1.052170,0.461159,-0.002899,-0.002838,-0.010914,1.107178,0.438965,0.033203,-0.531008,0.413592,0.555806,0.487905
19933,,9.853267,1.002650,0.441236,-0.000232,-0.001196,-0.014480,1.106934,0.441162,0.035400,-0.530971,0.413614,0.555813,0.487919
19934,,9.840802,1.032190,0.456507,-0.000555,-0.000222,-0.009486,1.104980,0.436768,0.026855,-0.530951,0.413647,0.555810,0.487918
19935,,9.840704,1.033191,0.456366,0.003617,-0.002338,-0.010702,1.107178,0.438965,0.035400,-0.530930,0.413669,0.555824,0.487905
19936,,9.852638,1.035998,0.423823,0.006869,-0.001197,-0.011273,1.104980,0.436768,0.026855,-0.530918,0.413679,0.555844,0.487886
19937,,9.861173,1.059549,0.427960,0.006586,-0.002728,-0.011417,1.106934,0.441162,0.031006,-0.530900,0.413694,0.555867,0.487867
19938,,9.861388,1.030601,0.444638,0.003616,-0.002339,-0.010702,1.104980,0.436768,0.031006,-0.530880,0.413717,0.555882,0.487853
19939,,9.864374,1.040966,0.390512,0.003344,-0.005651,-0.009492,1.109375,0.438965,0.033203,-0.530852,0.413752,0.555901,0.487831
19940,,9.843595,1.018016,0.418021,0.009545,-0.001336,-0.013486,1.104980,0.438965,0.028809,-0.530840,0.413750,0.555933,0.487810
19941,,9.801163,1.061052,0.422546,0.010435,-0.003868,-0.007640,1.104736,0.441162,0.031006,-0.530835,0.413768,0.555960,0.487770
19942,,9.860710,1.064631,0.426026,0.004495,-0.003090,-0.006209,1.104980,0.436768,0.031006,-0.530825,0.413804,0.555969,0.487740
19943,,9.864379,1.014649,0.405903,0.010142,-0.003618,-0.009137,1.104980,0.438965,0.026855,-0.530817,0.413816,0.555999,0.487703
19944,,9.834328,1.029180,0.394989,0.016657,-0.003115,-0.008926,1.107178,0.438965,0.026855,-0.530826,0.413811,0.556044,0.487647
19945,,9.867282,1.025845,0.351264,0.021687,-0.002418,-0.008358,1.100586,0.436768,0.031006,-0.530856,0.413782,0.556107,0.487566
19946,,9.867201,1.026758,0.350869,0.016938,-0.001585,-0.008782,1.109131,0.441162,0.031006,-0.530870,0.413774,0.556148,0.487511
19947,,9.872359,1.070633,0.391629,0.013070,-0.001501,-0.004715,1.106934,0.443359,0.032959,-0.530884,0.413787,0.556169,0.487461
19948,,9.846424,1.003961,0.378531,0.008875,0.004174,-0.006208,1.111572,0.437012,0.031250,-0.530904,0.413793,0.556170,0.487434
19949,,9.846005,1.034605,0.361655,0.010089,0.000668,-0.005354,1.107178,0.438965,0.028809,-0.530910,0.413814,0.556172,0.487406
19950,,9.866573,1.059379,0.333987,0.010630,0.007291,-0.007777,1.102783,0.436768,0.029053,-0.530938,0.413804,0.556173,0.487384
19951,,9.854815,1.028266,0.383823,0.011228,0.005012,-0.003428,1.104980,0.438965,0.028809,-0.530974,0.413805,0.556173,0.487343
19952,,9.866787,1.030385,0.351887,0.017449,0.005765,-0.004714,1.107422,0.432617,0.031250,-0.531019,0.413789,0.556188,0.487291
19953,,9.854680,1.029245,0.384677,0.011216,0.006792,-0.004782,1.104736,0.441162,0.028809,-0.531053,0.413789,0.556181,0.487263
19954,,9.875601,1.023896,0.374388,0.006175,0.007872,-0.006706,1.109619,0.432617,0.029053,-0.531075,0.413792,0.556166,0.487252
19955,,9.842459,1.028774,0.418417,0.005265,0.009349,-0.004709,1.109131,0.441162,0.033203,-0.531106,0.413798,0.556141,0.487242
19956,,9.854406,1.031082,0.386764,0.010348,0.005757,-0.007919,1.109375,0.438965,0.033203,-0.531129,0.413792,0.556145,0.487218
19957,,9.863257,1.024266,0.409011,-0.001273,0.012403,-0.007632,1.100586,0.436768,0.028809,-0.531136,0.413811,0.556090,0.487256
19958,,9.821104,1.037011,0.431711,0.003541,0.005501,-0.009628,1.109375,0.438965,0.031006,-0.531140,0.413818,0.556082,0.487256
19959,,9.833394,1.009515,0.417078,0.004396,0.008314,-0.007846,1.111328,0.441162,0.033203,-0.531158,0.413819,0.556064,0.487255
19960,,9.863250,0.996818,0.428440,0.009413,0.010794,-0.008631,1.109375,0.436768,0.029053,-0.531191,0.413801,0.556054,0.487246
19961,,9.854167,1.005234,0.407919,0.009425,0.009014,-0.007275,1.104736,0.443359,0.028809,-0.531216,0.413797,0.556038,0.487240
19962,,9.836137,1.021168,0.365903,0.009425,0.009014,-0.007275,1.107178,0.438965,0.031006,-0.531248,0.413787,0.556030,0.487224
19963,,9.892160,1.045687,0.407299,0.004396,0.008313,-0.007846,1.104980,0.438965,0.031006,-0.531266,0.413785,0.556015,0.487223
19964,,9.865874,1.009373,0.378113,0.000828,0.010976,-0.011484,1.109131,0.441162,0.028809,-0.531275,0.413781,0.555989,0.487246
19965,,9.887121,0.974455,0.385208,0.004103,0.008561,-0.009343,1.109375,0.436768,0.033203,-0.531289,0.413777,0.555974,0.487251
19966,,9.853150,1.039809,0.395314,0.001109,0.012506,-0.011341,1.104980,0.438965,0.031006,-0.531303,0.413769,0.555945,0.487276
19967,,9.865441,1.012416,0.381260,0.001694,0.012011,-0.008346,1.109375,0.438965,0.033203,-0.531319,0.413774,0.555905,0.487300
19968,,9.853238,1.011586,0.414607,-0.006866,0.008634,-0.008490,1.109375,0.436768,0.029053,-0.531312,0.413805,0.555860,0.487332
19969,,9.870997,0.997419,0.458344,-0.004481,0.008742,-0.012197,1.107178,0.434814,0.035400,-0.531298,0.413823,0.555823,0.487374
19970,,9.853313,0.983687,0.433524,-0.002423,0.009831,-0.010913,1.109375,0.438965,0.031006,-0.531298,0.413832,0.555791,0.487402
19971,,9.858228,1.027978,0.475463,-0.002704,0.008300,-0.011055,1.104980,0.438965,0.031006,-0.531286,0.413855,0.555752,0.487441
19972,,9.840577,1.014175,0.450133,-0.002327,0.000203,-0.010626,1.104980,0.436768,0.029053,-0.531260,0.413888,0.555746,0.487449
19973,,9.858340,1.000178,0.493252,-0.002072,0.005292,-0.013193,1.104980,0.436768,0.035400,-0.531245,0.413897,0.555734,0.487471
19974,,9.852792,0.987943,0.435685,0.009154,0.005708,-0.006057,1.109131,0.441162,0.031006,-0.531270,0.413898,0.555731,0.487446
19975,,9.869807,1.033768,0.444850,0.014218,0.005677,-0.011972,1.104736,0.438965,0.035400,-0.531284,0.413876,0.555746,0.487433
19976,,9.852151,1.020118,0.419506,0.012733,0.005870,-0.011616,1.107178,0.436768,0.029053,-0.531303,0.413853,0.555763,0.487413
19977,,9.893710,1.039448,0.381113,0.007997,0.004918,-0.010691,1.109619,0.432617,0.035645,-0.531308,0.413849,0.555764,0.487408
19978,,9.885410,0.988091,0.394284,0.009762,0.006256,-0.010904,1.098389,0.436768,0.026855,-0.531324,0.413835,0.555771,0.487396
19979,,9.864224,0.995212,0.405678,0.010954,0.006309,-0.012757,1.104980,0.434814,0.031250,-0.531337,0.413813,0.555782,0.487387
19980,,9.864060,0.996626,0.406178,0.007120,0.005658,-0.015184,1.107178,0.438965,0.028809,-0.531335,0.413795,0.555794,0.487391
19981,,9.850993,1.056388,0.404991,-0.001513,0.008347,-0.012910,1.100342,0.438965,0.028809,-0.531330,0.413797,0.555773,0.487419
19982,,9.884772,0.993394,0.396948,-0.005983,0.010703,-0.013200,1.104736,0.443359,0.026611,-0.531319,0.413807,0.555735,0.487465
19983,,9.863157,1.030526,0.391686,0.006777,0.008420,-0.011547,1.106934,0.441162,0.033203,-0.531343,0.413776,0.555744,0.487455
19984,,9.841947,1.037667,0.403260,-0.000307,0.006622,-0.013407,1.104980,0.434814,0.031250,-0.531333,0.413780,0.555731,0.487477
19985,,9.875352,1.004708,0.377991,0.005278,0.010391,-0.012547,1.107178,0.436768,0.026855,-0.531343,0.413765,0.555716,0.487496
19986,,9.871610,1.026722,0.415500,0.006776,0.008420,-0.011546,1.107178,0.434814,0.029053,-0.531357,0.413751,0.555711,0.487498
19987,,9.849997,1.063666,0.410139,0.004376,0.010089,-0.009197,1.109375,0.436768,0.031250,-0.531382,0.413740,0.555697,0.487496
19988,,9.833195,0.989931,0.419400,-0.000320,0.008398,-0.014762,1.102539,0.441162,0.033203,-0.531374,0.413736,0.555682,0.487526
19989,,9.862594,1.007931,0.413811,0.004985,0.010636,-0.014044,1.107178,0.436768,0.029053,-0.531381,0.413716,0.555670,0.487549
19990,,9.849883,1.037495,0.430021,0.002597,0.010528,-0.010339,1.102539,0.443359,0.031006,-0.531395,0.413711,0.555647,0.487563
19991,,9.858646,1.031056,0.452691,-0.001887,0.014659,-0.011986,1.104980,0.436768,0.029053,-0.531411,0.413696,0.555612,0.487599
19992,,9.840597,1.047372,0.411023,0.006762,0.010197,-0.012899,1.109375,0.434814,0.033447,-0.531427,0.413674,0.555606,0.487608
19993,,9.861500,1.042650,0.401223,0.002875,0.012058,-0.010196,1.102783,0.436768,0.033203,-0.531445,0.413668,0.555576,0.487627
19994,,9.882404,1.037951,0.391419,0.001736,0.009488,-0.013476,1.104980,0.436768,0.033203,-0.531447,0.413659,0.555561,0.487650
19995,,9.831143,1.058588,0.392777,-0.000972,0.013180,-0.013981,1.104736,0.438965,0.033203,-0.531449,0.413650,0.555526,0.487695
19996,,9.869907,1.038716,0.426012,-0.001569,0.010856,-0.007778,1.104980,0.436768,0.031006,-0.531462,0.413663,0.555487,0.487715
19997,,9.831260,1.030608,0.412195,-0.003930,0.011785,-0.011917,1.104980,0.436768,0.029053,-0.531462,0.413667,0.555447,0.487756
19998,,9.810457,1.007551,0.441089,-0.005957,0.007137,-0.010492,1.104736,0.441162,0.033203,-0.531448,0.413693,0.555413,0.487788
19999,,9.870309,0.981800,0.463312,-0.000390,0.012687,-0.010984,1.102783,0.434570,0.029053,-0.531463,0.413683,0.555383,0.487814
20000,,9.848639,1.018666,0.458232,0.011162,0.012140,-0.008824,1.109375,0.438965,0.031006,-0.531503,0.413656,0.555373,0.487804
20001,,9.890216,1.038002,0.420542,0.015328,0.011811,-0.011382,1.109375,0.436768,0.035400,-0.531549,0.413606,0.555385,0.487784
20002,,9.860505,1.022354,0.427982,0.009690,0.010553,-0.007115,1.109375,0.436768,0.031250,-0.531586,0.413592,0.555373,0.487770
20003,,9.860369,1.023264,0.428934,0.010593,0.010853,-0.010464,1.106934,0.443359,0.028809,-0.531612,0.413572,0.555361,0.487771
20004,,9.837609,0.996075,0.346094,0.010870,0.012384,-0.010321,1.109375,0.436768,0.035400,-0.531648,0.413542,0.555354,0.487766
20005,,9.842693,1.010214,0.405241,0.005231,0.011127,-0.006055,1.106934,0.443359,0.035156,-0.531679,0.413539,0.555327,0.487766
20006,,9.834109,0.988339,0.402077,0.005784,0.014189,-0.005770,1.107178,0.438965,0.035400,-0.531720,0.413530,0.555293,0.487767
20007,,9.842013,1.041548,0.390687,0.011714,0.015200,-0.008537,1.102783,0.436768,0.033203,-0.531764,0.413499,0.555270,0.487772
20008,,9.850336,1.064875,0.396448,0.008741,0.015582,-0.007832,1.106934,0.441162,0.028809,-0.531810,0.413473,0.555243,0.487773
20009,,9.871727,1.029844,0.404132,0.001954,0.013529,-0.008203,1.102539,0.438965,0.033203,-0.531841,0.413460,0.555213,0.487785
20010,,9.880927,0.993090,0.444075,0.002520,0.014815,-0.006562,1.107178,0.434814,0.035400,-0.531876,0.413456,0.555171,0.487798
20011,,9.834839,1.026384,0.503630,0.003439,0.013337,-0.008555,1.104980,0.434814,0.035400,-0.531902,0.413449,0.555135,0.487817
20012,,9.838428,1.006435,0.468421,0.000453,0.015495,-0.009205,1.107178,0.434814,0.033447,-0.531928,0.413442,0.555091,0.487845
20013,,9.847166,0.999802,0.491227,0.001677,0.011997,-0.008344,1.104980,0.436768,0.035400,-0.531945,0.413447,0.555052,0.487866
20014,,9.825919,1.006421,0.503219,0.003729,0.013092,-0.007056,1.109131,0.441162,0.031006,-0.531977,0.413442,0.555018,0.487874
20015,,9.859558,0.973016,0.478294,0.005874,0.008116,-0.008186,1.107178,0.436768,0.031250,-0.531996,0.413439,0.555006,0.487870
20016,,9.858997,1.003918,0.461857,0.011818,0.007353,-0.009594,1.107178,0.436768,0.031250,-0.532022,0.413420,0.555013,0.487850
20017,,9.858877,1.004807,0.462476,0.015647,0.008013,-0.007160,1.104980,0.436768,0.031006,-0.532067,0.413390,0.555026,0.487810
20018,,9.858756,1.005718,0.463079,0.013304,0.007161,-0.009945,1.109375,0.438965,0.035400,-0.532095,0.413367,0.555038,0.487787
20019,,9.849720,1.014384,0.442278,0.013000,0.009181,-0.012799,1.100586,0.434570,0.031250,-0.532120,0.413330,0.555048,0.487778
20020,,9.891361,1.033809,0.404322,0.003821,0.007018,-0.009475,1.104736,0.438965,0.033203,-0.532129,0.413333,0.555036,0.487780
20021,,9.840535,1.024116,0.422382,0.007040,0.011718,-0.012748,1.107178,0.436768,0.033203,-0.532155,0.413299,0.555032,0.487786
20022,,9.864863,1.028464,0.358871,0.001123,0.008930,-0.008630,1.111816,0.432617,0.037842,-0.532166,0.413307,0.555006,0.487796
20023,,9.861350,1.020391,0.413659,0.005828,0.013440,-0.012254,1.107178,0.434814,0.035400,-0.532182,0.413293,0.554976,0.487824
20024,,9.840046,1.027435,0.425708,-0.002169,0.013104,-0.012138,1.111572,0.438965,0.031006,-0.532189,0.413290,0.554939,0.487862
20025,,9.839871,1.028538,0.427088,-0.008114,0.013866,-0.010733,1.107178,0.432617,0.035645,-0.532188,0.413307,0.554879,0.487916
20026,,9.869707,1.016272,0.439107,-0.002154,0.011329,-0.010781,1.106934,0.441162,0.033203,-0.532193,0.413312,0.554844,0.487947
20027,,9.890686,1.011475,0.429373,0.000833,0.009173,-0.010127,1.104736,0.438965,0.039551,-0.532198,0.413318,0.554817,0.487967
20028,,9.827136,1.029947,0.462802,0.003418,0.015108,-0.009909,1.109375,0.436768,0.031250,-0.532228,0.413301,0.554783,0.487987
20029,,9.826975,1.030914,0.464064,-0.000379,0.010894,-0.009633,1.104736,0.438965,0.035400,-0.532235,0.413308,0.554746,0.488015
20030,,9.869542,0.990316,0.460862,0.006117,0.013196,-0.010752,1.104736,0.438965,0.035400,-0.532262,0.413287,0.554726,0.488027
20031,,9.839388,1.004614,0.451206,0.010880,0.010607,-0.008950,1.109619,0.432617,0.033447,-0.532296,0.413262,0.554719,0.488018
20032,,9.847652,1.028090,0.456457,0.013853,0.010227,-0.009650,1.111572,0.438965,0.033203,-0.532334,0.413230,0.554724,0.487999
20033,,9.851398,1.008086,0.420794,0.014705,0.011271,-0.006512,1.104980,0.436768,0.037598,-0.532383,0.413205,0.554718,0.487973
20034,,9.859662,1.031497,0.426159,0.012351,0.012190,-0.010656,1.102783,0.434570,0.031250,-0.532421,0.413170,0.554715,0.487964
20035,,9.838387,1.038187,0.437799,0.004674,0.008059,-0.006334,1.104980,0.434814,0.037598,-0.532444,0.413174,0.554697,0.487957
20036,,9.868244,1.025855,0.449579,-0.000683,0.012907,-0.012490,1.111572,0.437012,0.033447,-0.532452,0.413167,0.554664,0.487991
20037,,9.889698,0.991105,0.457091,0.006145,0.009644,-0.008039,1.106934,0.441162,0.037354,-0.532473,0.413167,0.554642,0.487994
20038,,9.838425,1.010984,0.457939,0.011168,0.010363,-0.007449,1.104736,0.438965,0.035400,-0.532511,0.413148,0.554634,0.487977
20039,,9.850586,1.013547,0.426652,0.010590,0.010848,-0.010445,1.107178,0.436768,0.037598,-0.532539,0.413120,0.554628,0.487977
20040,,9.893232,0.972858,0.423131,0.018905,0.007397,-0.006342,1.102539,0.441162,0.033203,-0.532588,0.413091,0.554645,0.487929
20041,,9.849412,1.075174,0.393851,0.019148,0.012475,-0.008914,1.107178,0.438965,0.033203,-0.532645,0.413039,0.554655,0.487900
20042,,9.786265,1.063629,0.444128,-0.012185,0.008104,-0.010613,1.109375,0.438965,0.031006,-0.532621,0.413079,0.554603,0.487951
20043,,9.867774,1.002150,0.472991,-0.018102,0.005314,-0.006502,1.111572,0.437012,0.031250,-0.532592,0.413144,0.554543,0.487996
20044,,9.851357,0.927993,0.482503,0.001365,0.014001,-0.011201,1.102783,0.436768,0.033203,-0.532610,0.413132,0.554510,0.488023
20045,,9.875869,1.026423,0.479396,0.007646,0.007680,-0.007031,1.111328,0.441162,0.037598,-0.532641,0.413123,0.554507,0.488002
20046,,9.850138,0.989960,0.449848,0.002395,0.006451,-0.015604,1.107178,0.436768,0.033203,-0.532630,0.413114,0.554506,0.488022
20047,,9.870652,1.015477,0.422804,0.002304,0.010749,-0.011833,1.102783,0.432617,0.033447,-0.532638,0.413106,0.554482,0.488046
20048,,9.858158,1.015106,0.455917,0.001470,0.007928,-0.013615,1.111572,0.437012,0.033447,-0.532634,0.413102,0.554471,0.488067
20049,,9.849621,0.993925,0.452413,0.001742,0.009459,-0.013473,1.104980,0.432617,0.039795,-0.532639,0.413091,0.554457,0.488087
20050,,9.840617,1.002619,0.431735,-0.004751,0.007152,-0.012360,1.109375,0.436768,0.031250,-0.532623,0.413109,0.554430,0.488120
20051,,9.858132,0.988972,0.475568,-0.002992,0.008494,-0.012567,1.109375,0.436768,0.033203,-0.532613,0.413121,0.554400,0.488155
20052,,9.865827,1.042691,0.463675,-0.001232,0.009837,-0.012774,1.109375,0.436768,0.033203,-0.532611,0.413122,0.554375,0.488185
20053,,9.848963,0.998815,0.455953,-0.007453,0.009060,-0.011521,1.102783,0.434570,0.033203,-0.532600,0.413141,0.554337,0.488223
20054,,9.828119,0.975892,0.484513,-0.004097,0.004143,-0.014491,1.109375,0.438965,0.035400,-0.532573,0.413158,0.554323,0.488254
20055,,9.853480,1.014810,0.515267,-0.000002,0.006343,-0.011908,1.104736,0.438965,0.037598,-0.532569,0.413161,0.554312,0.488268
20056,,9.844984,0.993533,0.511479,-0.000562,0.005054,-0.013548,1.107178,0.436768,0.037598,-0.532553,0.413170,0.554303,0.488289
20057,,9.865510,1.019046,0.483995,0.003915,0.002716,-0.013237,1.104980,0.432617,0.037598,-0.532537,0.413175,0.554305,0.488299
20058,,9.857021,0.997932,0.479868,0.005114,0.002770,-0.015084,1.109131,0.441162,0.035400,-0.532523,0.413170,0.554319,0.488303
20059,,9.856860,0.999337,0.480241,0.004458,0.005778,-0.012953,1.109131,0.443359,0.037354,-0.532519,0.413167,0.554316,0.488314
20060,,9.860724,0.979847,0.444069,0.016643,0.004032,-0.014243,1.109375,0.436768,0.031250,-0.532535,0.413130,0.554353,0.488286
20061,,9.838338,1.047083,0.420774,0.013364,0.006422,-0.016400,1.104980,0.436768,0.033203,-0.532546,0.413086,0.554383,0.488278
20062,,9.859350,1.042726,0.410662,0.005017,0.007065,-0.011313,1.104980,0.436768,0.033203,-0.532553,0.413081,0.554377,0.488281
20063,,9.859208,1.043875,0.411158,0.004474,0.004003,-0.011596,1.102539,0.441162,0.033203,-0.532556,0.413075,0.554386,0.488273
20064,,9.868398,1.007873,0.450410,0.002665,0.007977,-0.015459,1.107178,0.438965,0.035400,-0.532550,0.413062,0.554381,0.488295
20065,,9.838207,1.022366,0.440266,0.005016,0.007065,-0.011313,1.109375,0.438965,0.035400,-0.532561,0.413047,0.554382,0.488294
20066,,9.868085,1.010377,0.451669,0.006232,0.005346,-0.011802,1.115967,0.437012,0.039795,-0.532565,0.413042,0.554385,0.488292
20067,,9.825004,1.053143,0.456470,0.006198,0.008891,-0.014515,1.111816,0.432617,0.033447,-0.532563,0.413031,0.554373,0.488316
20068,,9.858951,1.020190,0.431332,-0.001169,0.002737,-0.007349,1.100342,0.438965,0.039551,-0.532554,0.413064,0.554356,0.488317
20069,,9.871724,0.992874,0.416889,0.003511,0.009024,-0.012320,1.109375,0.438965,0.037598,-0.532559,0.413057,0.554340,0.488335
20070,,9.879311,1.046641,0.405007,0.002006,0.010984,-0.013329,1.107178,0.434814,0.039795,-0.532566,0.413045,0.554320,0.488360
20071,,9.879141,1.047767,0.406219,0.006655,0.014480,-0.009105,1.102783,0.436768,0.037598,-0.532595,0.413033,0.554284,0.488381
20072,,9.879520,1.018830,0.424720,-0.006918,0.012106,-0.011243,1.109375,0.436768,0.033203,-0.532591,0.413047,0.554236,0.488428
20073,,9.858148,1.025595,0.436820,-0.002845,0.016084,-0.010014,1.109375,0.434814,0.039795,-0.532611,0.413042,0.554185,0.488467
20074,,9.845596,1.024944,0.470457,-0.001898,0.012834,-0.010645,1.104736,0.438965,0.037598,-0.532621,0.413043,0.554146,0.488500
20075,,9.857816,1.027650,0.439480,-0.002169,0.011303,-0.010787,1.106934,0.441162,0.039551,-0.532621,0.413055,0.554103,0.488540
20076,,9.832861,1.025354,0.505280,-0.001089,0.017428,-0.010219,1.111572,0.438965,0.037598,-0.532646,0.413044,0.554052,0.488579
20077,,9.862146,1.043331,0.500526,0.002546,0.014045,-0.013042,1.100586,0.436768,0.041748,-0.532657,0.413028,0.554019,0.488618
20078,,9.857299,1.030732,0.443839,0.002765,0.014559,-0.005062,1.104736,0.438965,0.035400,-0.532695,0.413028,0.553975,0.488626
20079,,9.857726,1.001374,0.462239,0.000181,0.010392,-0.006639,1.104736,0.438965,0.039551,-0.532712,0.413039,0.553938,0.488641
20080,,9.865867,1.024631,0.467719,-0.001324,0.012350,-0.007648,1.106934,0.438965,0.041748,-0.532729,0.413048,0.553895,0.488663
20081,,9.845054,1.001134,0.496856,0.003964,0.014612,-0.006906,1.107178,0.436768,0.037598,-0.532758,0.413045,0.553849,0.488686
20082,,9.849078,0.980942,0.461515,0.008176,0.010750,-0.006732,1.100586,0.436768,0.035400,-0.532793,0.413035,0.553832,0.488676
20083,,9.865479,1.026777,0.471191,0.003156,0.010018,-0.007332,1.104980,0.432617,0.035645,-0.532817,0.413033,0.553809,0.488677
20084,,9.831693,1.031667,0.515080,-0.000124,0.012403,-0.009494,1.111572,0.432617,0.041992,-0.532833,0.413033,0.553773,0.488701
20085,,9.869913,0.977676,0.453992,0.001112,0.008913,-0.008626,1.106934,0.438965,0.037598,-0.532838,0.413051,0.553738,0.488720
20086,,9.895087,1.016204,0.485312,0.003694,0.013080,-0.007048,1.111572,0.434814,0.039795,-0.532869,0.413046,0.553704,0.488727
20087,,9.860854,0.986596,0.434865,0.002188,0.015038,-0.008057,1.109131,0.438965,0.039795,-0.532896,0.413044,0.553658,0.488754
20088,,9.826505,1.021383,0.461704,0.006400,0.011176,-0.007881,1.106934,0.441162,0.037354,-0.532925,0.413034,0.553637,0.488752
20089,,9.847591,1.016536,0.452291,0.000144,0.013932,-0.009352,1.107178,0.434814,0.037598,-0.532943,0.413030,0.553596,0.488783
20090,,9.826760,0.993083,0.481439,0.000717,0.013451,-0.006355,1.106934,0.441162,0.037354,-0.532971,0.413034,0.553553,0.488798
20091,,9.838523,1.025440,0.433436,0.005163,0.014665,-0.008748,1.103027,0.428223,0.035645,-0.533006,0.413014,0.553523,0.488810
20092,,9.846613,1.048854,0.439144,0.001918,0.013505,-0.008199,1.104736,0.438965,0.037598,-0.533032,0.413010,0.553486,0.488827
20093,,9.877042,1.006570,0.468608,0.000716,0.013450,-0.006355,1.109375,0.434814,0.035645,-0.533065,0.413010,0.553447,0.488837
20094,,9.855657,1.013049,0.480554,0.000144,0.013931,-0.009351,1.109375,0.437012,0.039795,-0.533086,0.413006,0.553407,0.488863
20095,,9.864823,0.976617,0.520651,0.001918,0.013504,-0.008198,1.107178,0.434814,0.044189,-0.533111,0.413003,0.553368,0.488881
20096,,9.851657,1.005730,0.536828,0.003138,0.011787,-0.008685,1.107178,0.434814,0.037598,-0.533133,0.412999,0.553340,0.488892
20097,,9.855756,0.985766,0.501326,0.000827,0.009150,-0.010122,1.109375,0.434814,0.037598,-0.533135,0.413010,0.553308,0.488918
20098,,9.860142,1.000159,0.560268,0.001399,0.008670,-0.007126,1.104980,0.436768,0.039795,-0.533149,0.413022,0.553280,0.488923
20099,,9.842478,1.015742,0.517799,0.005041,0.005291,-0.009943,1.104980,0.436768,0.035400,-0.533154,0.413025,0.553275,0.488921
20100,,9.829889,1.014918,0.550333,0.003857,0.003465,-0.006744,1.109375,0.437012,0.037598,-0.533159,0.413045,0.553267,0.488908
20101,,9.838015,1.038168,0.555070,0.004125,0.004996,-0.006602,1.107422,0.430420,0.035645,-0.533175,0.413053,0.553261,0.488891
20102,,9.864001,0.982311,0.525494,0.008607,0.002669,-0.006280,1.109131,0.438965,0.041748,-0.533189,0.413063,0.553265,0.488862
20103,,9.833893,0.996138,0.514664,0.017804,0.003087,-0.008207,1.111572,0.434814,0.039795,-0.533218,0.413044,0.553292,0.488816
20104,,9.871487,1.036485,0.512649,0.020263,-0.002117,-0.007824,1.102783,0.434814,0.037598,-0.533239,0.413031,0.553341,0.488749
20105,,9.863197,1.014775,0.508104,0.003036,0.000641,-0.008526,1.107422,0.432617,0.033447,-0.533230,0.413055,0.553340,0.488739
20106,,9.833100,1.028542,0.497037,-0.001678,-0.002105,-0.006277,1.109375,0.434814,0.037598,-0.533210,0.413104,0.553332,0.488728
