// Start Time: Unknown
// Update Rate: 100.0Hz
// Filter Profile: human (46.1)
// Option Flags: AHS Disabled ICC Disabled 
// Firmware Version: 4.3.4
PacketCounter,SampleTimeFine,Acc_X,Acc_Y,Acc_Z,Gyr_X,Gyr_Y,Gyr_Z,Mag_X,Mag_Y,Mag_Z,Quat_q0,Quat_q1,Quat_q2,Quat_q3
19741,,9.751488,1.556792,-0.585309,-0.030613,-0.011828,-0.020910,1.022217,-0.008789,-1.019043,-0.587482,-0.472321,0.554092,-0.353213
19742,,9.740162,1.623578,-0.480165,-0.035531,-0.013799,-0.020824,1.024658,-0.011230,-1.023438,-0.587541,-0.472329,0.554136,-0.353035
19743,,9.750913,1.584441,-0.595457,-0.042843,-0.021125,-0.025133,1.024414,-0.006592,-1.021484,-0.587621,-0.472316,0.554227,-0.352778
19744,,9.753549,1.587762,-0.523588,-0.041429,-0.019298,-0.027705,1.012939,-0.004639,-1.028076,-0.587690,-0.472334,0.554281,-0.352551
19745,,9.715322,1.591271,-0.596448,-0.050591,-0.020020,-0.029328,1.020020,-0.009033,-1.023438,-0.587799,-0.472309,0.554372,-0.352262
19746,,9.748698,1.547538,-0.582494,-0.037341,-0.017586,-0.029627,1.022217,-0.006592,-1.021240,-0.587868,-0.472338,0.554414,-0.352040
19747,,9.748365,1.573720,-0.592036,-0.029084,-0.018756,-0.032409,1.019775,-0.002197,-1.021484,-0.587935,-0.472382,0.554456,-0.351805
19748,,9.798816,1.593026,-0.620010,-0.022459,-0.014153,-0.037247,1.019775,-0.002197,-1.026123,-0.587995,-0.472467,0.554445,-0.351608
19749,,9.765716,1.631794,-0.595357,-0.009197,-0.012216,-0.026602,1.022217,-0.006592,-1.023682,-0.588022,-0.472541,0.554446,-0.351460
19750,,9.698625,1.717008,-0.585837,-0.020672,-0.016661,-0.030048,1.019775,-0.006836,-1.025879,-0.588055,-0.472622,0.554451,-0.351289
19751,,9.732321,1.696025,-0.580042,-0.038758,-0.013208,-0.025547,1.021973,-0.004395,-1.023682,-0.588147,-0.472608,0.554510,-0.351060
19752,,9.729461,1.617939,-0.588474,-0.031013,-0.014326,-0.021383,1.017334,-0.002197,-1.028320,-0.588190,-0.472638,0.554541,-0.350899
19753,,9.763533,1.619192,-0.590971,-0.028629,-0.015233,-0.018543,1.019531,0.000000,-1.028320,-0.588240,-0.472638,0.554604,-0.350714
19754,,9.748728,1.662045,-0.550629,-0.030938,-0.012699,-0.018815,1.019775,-0.002197,-1.021484,-0.588289,-0.472650,0.554644,-0.350555
19755,,9.743085,1.629269,-0.648793,-0.042336,-0.015522,-0.019692,1.021729,0.002197,-1.024170,-0.588373,-0.472613,0.554729,-0.350328
19756,,9.775255,1.595714,-0.675389,-0.007700,-0.009257,-0.015674,1.015137,-0.002441,-1.026123,-0.588374,-0.472673,0.554728,-0.350247
19757,,9.730090,1.731193,-0.593075,-0.023639,-0.011629,-0.016066,1.017334,0.000000,-1.023926,-0.588418,-0.472675,0.554778,-0.350092
19758,,9.741878,1.611487,-0.642847,-0.034958,-0.012820,-0.014361,1.019775,-0.002197,-1.023926,-0.588466,-0.472665,0.554833,-0.349937
19759,,9.761211,1.607411,-0.587340,-0.020078,-0.009338,-0.021961,1.019531,0.000000,-1.028320,-0.588518,-0.472689,0.554856,-0.349780
19760,,9.744638,1.638754,-0.578990,-0.018882,-0.006661,-0.019754,1.015137,-0.002441,-1.026123,-0.588551,-0.472736,0.554847,-0.349676
19761,,9.760643,1.634598,-0.596259,-0.012851,-0.003632,-0.020210,1.019287,0.006836,-1.021973,-0.588599,-0.472767,0.554844,-0.349557
19762,,9.724239,1.648789,-0.635406,-0.015455,-0.001898,-0.018293,1.017334,-0.002197,-1.023682,-0.588643,-0.472799,0.554829,-0.349464
19763,,9.725814,1.685345,-0.611073,-0.010620,-0.001546,-0.020960,1.021729,0.002197,-1.026367,-0.588693,-0.472835,0.554815,-0.349354
19764,,9.708970,1.670455,-0.585703,-0.021859,-0.001111,-0.016672,1.017334,0.002197,-1.026367,-0.588743,-0.472854,0.554802,-0.349264
19765,,9.741375,1.660076,-0.619594,-0.022762,-0.002993,-0.021072,1.015137,0.000000,-1.023926,-0.588818,-0.472857,0.554812,-0.349116
19766,,9.775381,1.638269,-0.612918,-0.018434,-0.002605,-0.016786,1.023926,0.006836,-1.024414,-0.588858,-0.472888,0.554800,-0.349029
19767,,9.757133,1.657667,-0.636166,-0.018141,0.004453,-0.017394,1.017334,0.002197,-1.026367,-0.588936,-0.472881,0.554789,-0.348923
19768,,9.740488,1.665752,-0.618317,-0.016734,0.006297,-0.019953,1.017090,0.004395,-1.024170,-0.589006,-0.472903,0.554745,-0.348844
19769,,9.705738,1.668431,-0.615772,-0.016656,0.007929,-0.017369,1.015137,0.000000,-1.019287,-0.589091,-0.472894,0.554722,-0.348751
19770,,9.721732,1.641137,-0.623580,-0.013680,0.008630,-0.018889,1.021729,0.004639,-1.021973,-0.589157,-0.472920,0.554667,-0.348691
19771,,9.755939,1.642504,-0.623896,-0.012725,0.012665,-0.022857,1.017334,0.004639,-0.994873,-0.589255,-0.472930,0.554610,-0.348604
19772,,9.755683,1.644506,-0.622621,-0.009060,0.009820,-0.016785,1.021729,0.004639,-1.024170,-0.589333,-0.472925,0.554575,-0.348531
19773,,9.737570,1.687115,-0.653087,0.001646,0.016211,-0.023490,1.019531,0.002197,-1.021729,-0.589408,-0.472973,0.554481,-0.348490
19774,,9.755210,1.648503,-0.619460,-0.007288,0.020355,-0.017363,1.021484,0.009033,-1.026611,-0.589486,-0.472998,0.554379,-0.348487
19775,,9.738736,1.679489,-0.608673,0.005521,0.018791,-0.020610,1.014648,0.009033,-1.019775,-0.589554,-0.473045,0.554277,-0.348471
19776,,9.722002,1.664606,-0.581564,-0.005137,0.020808,-0.020701,1.017090,0.009033,-1.019775,-0.589647,-0.473064,0.554180,-0.348442
19777,,9.738330,1.683315,-0.604593,-0.005354,0.021639,-0.015931,1.017090,0.006836,-1.019775,-0.589740,-0.473061,0.554100,-0.348416
19778,,9.701936,1.651041,-0.625202,-0.001556,0.022588,-0.015635,1.019531,0.004639,-1.021973,-0.589822,-0.473072,0.554005,-0.348415
19779,,9.754450,1.680403,-0.617392,0.010139,0.019982,-0.018507,1.014893,0.002197,-1.023926,-0.589878,-0.473124,0.553896,-0.348420
19780,,9.750809,1.612758,-0.664307,0.024743,0.022183,-0.012943,1.019287,0.009033,-1.024414,-0.589875,-0.473231,0.553742,-0.348526
19781,,9.721150,1.649332,-0.563709,0.040528,0.021325,-0.017705,1.016846,0.011230,-1.020020,-0.589861,-0.473369,0.553578,-0.348621
19782,,9.773365,1.632897,-0.540364,0.027870,0.014151,-0.023412,1.017334,0.000000,-1.021729,-0.589865,-0.473501,0.553440,-0.348655
19783,,9.753408,1.617898,-0.587195,0.029424,0.019262,-0.020803,1.012451,0.006592,-1.028809,-0.589877,-0.473618,0.553295,-0.348706
19784,,9.751587,1.631587,-0.626473,0.032910,0.019919,-0.029291,1.024170,0.004639,-1.010742,-0.589875,-0.473801,0.553092,-0.348783
19785,,9.702072,1.698584,-0.590587,0.037451,0.019475,-0.029777,1.012695,0.004395,-1.019531,-0.589884,-0.473966,0.552911,-0.348830
19786,,9.734511,1.666009,-0.614862,0.043837,0.024944,-0.029841,1.019287,0.009033,-1.022217,-0.589889,-0.474146,0.552694,-0.348919
19787,,9.717792,1.697697,-0.604491,0.054853,0.025354,-0.029366,1.019531,0.004639,-1.017334,-0.589873,-0.474351,0.552466,-0.349029
19788,,9.719196,1.757671,-0.586758,0.045833,0.027855,-0.025845,1.012451,0.006592,-1.017334,-0.589873,-0.474524,0.552246,-0.349144
19789,,9.720296,1.725725,-0.536233,0.038259,0.019686,-0.028013,1.014893,0.006592,-1.021973,-0.589878,-0.474686,0.552066,-0.349199
19790,,9.719899,1.705124,-0.526433,0.035261,0.025234,-0.024940,1.019531,0.006836,-1.015137,-0.589895,-0.474827,0.551877,-0.349278
19791,,9.736236,1.770184,-0.566466,0.020537,0.019238,-0.024705,1.019287,0.011230,-1.022217,-0.589935,-0.474929,0.551738,-0.349292
19792,,9.752293,1.720317,-0.565423,0.025898,0.019049,-0.023372,1.019287,0.009033,-1.019775,-0.589960,-0.475040,0.551593,-0.349326
19793,,9.717528,1.722840,-0.562792,0.034395,0.016586,-0.019948,1.017090,0.009033,-1.022217,-0.589952,-0.475174,0.551449,-0.349387
19794,,9.700852,1.753598,-0.553119,0.035212,0.016833,-0.018140,1.014648,0.013428,-1.024658,-0.589936,-0.475307,0.551303,-0.349462
19795,,9.769637,1.753874,-0.554955,0.018701,0.012826,-0.014162,1.019287,0.009033,-1.024414,-0.589944,-0.475385,0.551211,-0.349487
19796,,9.748424,1.703199,-0.625903,0.026191,0.019343,-0.014611,1.017334,0.002197,-1.019531,-0.589951,-0.475477,0.551083,-0.349551
19797,,9.715189,1.694105,-0.582550,0.043017,0.017873,-0.022352,1.014893,0.006592,-1.019775,-0.589930,-0.475641,0.550914,-0.349631
19798,,9.700042,1.759449,-0.548724,0.032298,0.017761,-0.014057,1.023926,0.011475,-1.020020,-0.589909,-0.475765,0.550770,-0.349725
19799,,9.767331,1.701942,-0.565957,0.027296,0.020373,-0.015011,1.017090,0.009033,-1.015381,-0.589919,-0.475857,0.550639,-0.349790
19800,,9.714772,1.720945,-0.587053,0.040695,0.019911,-0.011671,1.019287,0.009033,-1.024414,-0.589896,-0.475971,0.550500,-0.349893
19801,,9.734210,1.761865,-0.546360,0.044353,0.017102,-0.005574,1.014648,0.009033,-1.017578,-0.589840,-0.476093,0.550370,-0.350024
19802,,9.729844,1.703566,-0.634464,0.044579,0.015775,0.000623,1.024170,0.004639,-1.017334,-0.589768,-0.476201,0.550259,-0.350173
19803,,9.698395,1.727194,-0.567563,0.060196,0.017394,0.003196,1.017090,0.004395,-1.017334,-0.589660,-0.476345,0.550122,-0.350374
19804,,9.701421,1.750321,-0.502132,0.051794,0.015227,0.000788,1.016846,0.011230,-1.017578,-0.589565,-0.476481,0.549994,-0.350551
19805,,9.749678,1.719317,-0.584765,0.038425,0.008970,0.006884,1.014648,0.011230,-1.020020,-0.589479,-0.476566,0.549928,-0.350683
19806,,9.733283,1.724844,-0.567679,0.052995,0.011644,0.001429,1.019287,0.011230,-1.017822,-0.589387,-0.476684,0.549833,-0.350826
19807,,9.716856,1.730547,-0.550606,0.050019,0.010943,0.002946,1.014648,0.009033,-1.019775,-0.589285,-0.476811,0.549732,-0.350983
19808,,9.733563,1.769768,-0.583965,0.029861,0.009763,0.000848,1.023926,0.011475,-1.017822,-0.589244,-0.476867,0.549680,-0.351058
19809,,9.697726,1.758139,-0.614365,0.021139,0.013080,0.002191,1.021973,-0.002197,-1.017090,-0.589218,-0.476906,0.549621,-0.351139
19810,,9.697774,1.711894,-0.596483,0.019636,0.015862,0.003719,1.017090,0.009033,-1.022217,-0.589202,-0.476931,0.549560,-0.351229
19811,,9.733844,1.722779,-0.564329,0.019275,0.013427,0.003334,1.014893,0.006592,-1.024170,-0.589179,-0.476962,0.549507,-0.351309
19812,,9.733980,1.722428,-0.563047,0.021401,0.020114,0.001516,1.017090,0.006836,-1.015137,-0.589177,-0.476985,0.549431,-0.351399
19813,,9.767157,1.686631,-0.587023,0.025740,0.014277,0.004279,1.019531,0.006836,-1.006104,-0.589140,-0.477030,0.549366,-0.351502
19814,,9.750876,1.714993,-0.577437,0.046969,0.022736,0.007501,1.019531,0.006836,-1.015137,-0.589085,-0.477090,0.549265,-0.351670
19815,,9.737534,1.812879,-0.520354,0.033865,0.009381,0.007319,1.021729,0.009033,-1.017578,-0.589010,-0.477160,0.549207,-0.351792
19816,,9.703039,1.743892,-0.493154,0.014890,0.010908,0.007428,1.019531,0.002197,-1.014893,-0.588997,-0.477151,0.549193,-0.351847
19817,,9.701763,1.708164,-0.516457,-0.000106,0.004171,0.009930,1.017090,0.006836,-1.021973,-0.588984,-0.477122,0.549217,-0.351871
19818,,9.718474,1.701129,-0.532788,0.004276,0.006678,0.005816,1.014893,0.004395,-1.024170,-0.588978,-0.477107,0.549221,-0.351896
19819,,9.720152,1.758219,-0.516869,-0.004709,0.002967,0.007833,1.019287,0.009277,-0.995117,-0.588976,-0.477072,0.549251,-0.351898
19820,,9.751794,1.687685,-0.565374,-0.014529,0.005690,-0.001425,1.021729,0.006836,-1.006348,-0.589039,-0.477003,0.549289,-0.351827
19821,,9.751989,1.710181,-0.572891,-0.002815,0.010520,0.010785,1.021484,0.011230,-1.022217,-0.589048,-0.476953,0.549301,-0.351862
19822,,9.719118,1.744972,-0.546885,-0.006794,0.004624,0.002771,1.014648,0.009033,-1.019775,-0.589081,-0.476899,0.549337,-0.351823
19823,,9.735831,1.738062,-0.562917,-0.013367,0.007942,0.011748,1.021729,0.004639,-1.015137,-0.589107,-0.476820,0.549377,-0.351825
19824,,9.719538,1.743173,-0.545149,-0.008013,0.007751,0.013081,1.017090,0.004395,-1.021973,-0.589126,-0.476738,0.549423,-0.351832
19825,,9.686714,1.754397,-0.510620,-0.020428,0.005526,0.015188,1.012451,0.006592,-1.019775,-0.589156,-0.476633,0.549491,-0.351819
19826,,9.736496,1.688433,-0.543297,-0.029870,0.003988,0.015762,1.019531,0.004639,-1.012939,-0.589207,-0.476493,0.549588,-0.351770
19827,,9.720294,1.716385,-0.534014,-0.027711,0.004415,0.012415,1.017090,0.004395,-1.017334,-0.589256,-0.476376,0.549666,-0.351726
19828,,9.701262,1.697435,-0.580885,-0.026772,0.007965,0.019378,1.017090,0.004639,-1.015137,-0.589304,-0.476229,0.549752,-0.351709
19829,,9.734527,1.660858,-0.605190,-0.024050,0.002060,0.007539,1.023926,0.006836,-1.015381,-0.589347,-0.476140,0.549818,-0.351655
19830,,9.737512,1.683741,-0.539630,-0.016345,0.007241,0.013264,1.017334,0.002197,-1.012695,-0.589380,-0.476040,0.549875,-0.351645
19831,,9.734846,1.635996,-0.595309,-0.013341,0.001675,0.010209,1.017090,0.006592,-1.024170,-0.589391,-0.475976,0.549930,-0.351627
19832,,9.721365,1.688028,-0.521598,-0.006215,0.005738,0.009351,1.021484,0.009033,-1.028809,-0.589399,-0.475925,0.549960,-0.351636
19833,,9.739696,1.738713,-0.522237,-0.021375,0.001962,0.008199,1.019531,0.004639,-1.021973,-0.589434,-0.475843,0.550023,-0.351591
19834,,9.753306,1.639133,-0.578143,-0.009553,0.002617,0.010494,1.021729,0.002197,-1.024170,-0.589440,-0.475782,0.550074,-0.351582
19835,,9.720744,1.719293,-0.569420,0.006811,0.002824,0.012315,1.017334,0.000000,-1.019287,-0.589403,-0.475770,0.550095,-0.351629
19836,,9.722382,1.729850,-0.536817,-0.000706,0.002582,0.014314,1.021973,0.002441,-1.015137,-0.589371,-0.475741,0.550125,-0.351675
19837,,9.719572,1.659067,-0.584699,-0.003809,-0.001398,0.010686,1.017334,0.002197,-1.017334,-0.589350,-0.475709,0.550173,-0.351678
19838,,9.773714,1.697791,-0.546351,0.005997,0.002567,0.010500,1.017090,0.006836,-1.019775,-0.589314,-0.475703,0.550188,-0.351723
19839,,9.755830,1.668163,-0.553552,0.007199,-0.001001,0.011168,1.017090,0.006836,-1.019775,-0.589267,-0.475701,0.550217,-0.351758
19840,,9.722915,1.679536,-0.520119,0.020433,0.001474,0.010886,1.021973,0.002441,-1.017334,-0.589203,-0.475723,0.550224,-0.351824
19841,,9.741159,1.707053,-0.513148,0.003707,-0.001158,0.008684,1.021729,0.006836,-1.012939,-0.589169,-0.475718,0.550254,-0.351842
19842,,9.735415,1.612902,-0.626201,0.005208,-0.003941,0.007158,1.019531,0.004639,-1.017334,-0.589130,-0.475721,0.550289,-0.351850
19843,,9.721911,1.665023,-0.553535,0.033240,-0.000134,0.007642,1.012695,0.004395,-1.017334,-0.589030,-0.475804,0.550261,-0.351948
19844,,9.722168,1.687034,-0.562534,0.020005,-0.002607,0.007923,1.017334,0.000000,-1.014893,-0.588958,-0.475844,0.550271,-0.351999
19845,,9.738374,1.611424,-0.554693,0.013773,-0.004313,0.002197,1.024414,-0.002197,-1.019287,-0.588902,-0.475892,0.550276,-0.352018
19846,,9.740226,1.691575,-0.548382,0.027157,-0.004806,0.005535,1.015137,0.000000,-1.019287,-0.588800,-0.475982,0.550258,-0.352098
19847,,9.740281,1.691027,-0.549085,0.016812,-0.001983,0.003242,1.012695,0.002197,-1.019531,-0.588741,-0.476032,0.550253,-0.352134
19848,,9.722367,1.685004,-0.565176,0.011909,-0.003962,0.003339,1.017334,0.002441,-0.999268,-0.588688,-0.476071,0.550265,-0.352153
19849,,9.774825,1.689740,-0.551418,0.015183,-0.002494,-0.000384,1.021729,0.009033,-1.022217,-0.588638,-0.476127,0.550256,-0.352173
19850,,9.722539,1.707369,-0.574639,0.008182,-0.003255,0.005628,1.017334,0.002197,-1.030762,-0.588605,-0.476129,0.550290,-0.352173
19851,,9.722621,1.706750,-0.575082,0.011972,-0.002316,0.005911,1.019531,0.002197,-1.023926,-0.588553,-0.476158,0.550302,-0.352203
19852,,9.742216,1.746581,-0.536093,0.007069,-0.004294,0.006010,1.012451,0.006592,-1.021973,-0.588506,-0.476175,0.550330,-0.352214
19853,,9.721217,1.670708,-0.599947,-0.003937,-0.004681,0.005539,1.014893,0.006592,-1.021973,-0.588485,-0.476163,0.550376,-0.352194
19854,,9.721434,1.693047,-0.608758,0.003642,-0.002803,0.006105,1.021729,0.006836,-1.026611,-0.588463,-0.476148,0.550422,-0.352179
19855,,9.756012,1.691822,-0.610241,-0.006251,-0.002151,0.005251,1.021973,0.000000,-1.021729,-0.588456,-0.476125,0.550464,-0.352157
19856,,9.719726,1.611449,-0.616097,0.006168,0.000056,0.003144,1.019531,0.002197,-1.019531,-0.588432,-0.476135,0.550477,-0.352164
19857,,9.704983,1.675038,-0.583740,0.021691,0.006241,0.004655,1.017334,0.000000,-1.019287,-0.588382,-0.476181,0.550443,-0.352237
19858,,9.740827,1.663045,-0.543976,0.012483,0.003853,0.000465,1.024414,-0.002197,-1.017090,-0.588355,-0.476214,0.550423,-0.352268
19859,,9.756000,1.644514,-0.592990,0.019762,0.004946,0.003224,1.014893,0.002197,-1.021729,-0.588308,-0.476261,0.550393,-0.352329
19860,,9.723273,1.702646,-0.576223,0.019698,0.003297,0.000649,1.019531,0.004639,-1.019531,-0.588260,-0.476319,0.550360,-0.352383
19861,,9.724572,1.691576,-0.535282,0.013595,0.004889,0.000078,1.012695,0.002197,-1.023926,-0.588234,-0.476357,0.550334,-0.352417
19862,,9.739683,1.673438,-0.584238,0.004388,0.002502,-0.004108,1.015137,0.000000,-1.014893,-0.588238,-0.476370,0.550331,-0.352397
19863,,9.756254,1.667055,-0.600707,0.015585,0.007830,0.004077,1.017090,0.006836,-1.021973,-0.588207,-0.476398,0.550302,-0.352455
19864,,9.757733,1.678822,-0.567824,0.014257,0.008100,-0.001742,1.024414,-0.002197,-1.017090,-0.588200,-0.476423,0.550272,-0.352482
19865,,9.723093,1.656755,-0.557578,0.016119,0.007743,-0.002889,1.019531,0.002197,-1.019531,-0.588180,-0.476471,0.550225,-0.352521
19866,,9.723419,1.702579,-0.573960,0.010531,0.008810,0.000547,1.021973,0.000000,-1.021729,-0.588171,-0.476492,0.550192,-0.352561
19867,,9.774399,1.672427,-0.582760,0.020035,0.011976,0.002534,1.015137,0.000000,-1.010254,-0.588144,-0.476529,0.550140,-0.352638
19868,,9.741726,1.730341,-0.565718,0.012694,0.002541,0.006659,1.019531,0.002197,-1.019531,-0.588103,-0.476547,0.550138,-0.352684
19869,,9.740001,1.649020,-0.572235,0.018622,0.010156,0.005110,1.024170,0.000244,-1.019531,-0.588070,-0.476576,0.550099,-0.352760
19870,,9.725154,1.689547,-0.531110,0.016845,0.005906,0.007313,1.024170,0.002441,-1.019531,-0.588030,-0.476596,0.550085,-0.352823
19871,,9.739018,1.658626,-0.612391,0.012179,0.003064,0.002650,1.012695,0.000000,-1.017090,-0.587997,-0.476625,0.550073,-0.352857
19872,,9.740508,1.670167,-0.579819,0.017144,0.006685,0.005115,1.024170,0.004639,-1.021973,-0.587964,-0.476647,0.550054,-0.352913
19873,,9.724231,1.698876,-0.571172,0.020120,0.007363,0.003582,1.017334,0.000000,-1.023926,-0.587922,-0.476689,0.550017,-0.352981
19874,,9.724182,1.675465,-0.562292,0.017143,0.006683,0.005111,1.019531,0.000000,-1.021729,-0.587892,-0.476707,0.550002,-0.353032
19875,,9.724645,1.720581,-0.578930,0.015280,0.007040,0.006256,1.021973,0.000000,-1.023926,-0.587856,-0.476729,0.549981,-0.353094
19876,,9.724477,1.674006,-0.561544,0.013866,0.005223,0.008836,1.021973,0.000000,-1.021729,-0.587819,-0.476735,0.549980,-0.353150
19877,,9.759331,1.695202,-0.570936,0.013116,0.006616,0.009594,1.015137,-0.004639,-1.019043,-0.587781,-0.476742,0.549972,-0.353215
19878,,9.710077,1.735976,-0.528737,0.017416,0.007026,0.013877,1.017090,0.004395,-1.021973,-0.587727,-0.476748,0.549966,-0.353307
19879,,9.725326,1.693287,-0.569107,0.008362,0.001692,0.013332,1.019531,0.000000,-1.023926,-0.587681,-0.476739,0.549990,-0.353358
19880,,9.741957,1.662646,-0.577092,0.009089,0.006551,0.014076,1.015137,-0.004395,-1.014648,-0.587657,-0.476703,0.550016,-0.353406
19881,,9.726035,1.713367,-0.576966,0.013626,0.006089,0.013594,1.019287,0.006836,-1.021973,-0.587610,-0.476701,0.550018,-0.353483
19882,,9.742495,1.659763,-0.576307,0.010650,0.005411,0.015124,1.022217,-0.006592,-1.014648,-0.587576,-0.476671,0.550045,-0.353539
19883,,9.726440,1.687296,-0.567862,0.014584,0.003390,0.019031,1.021729,0.004639,-1.019775,-0.587510,-0.476662,0.550066,-0.353628
19884,,9.759723,1.649612,-0.592457,0.014563,0.009641,0.020531,1.019775,0.000000,-1.014893,-0.587463,-0.476629,0.550078,-0.353731
19885,,9.727153,1.683486,-0.566961,0.020087,0.006909,0.014526,1.017334,0.000000,-1.019287,-0.587401,-0.476643,0.550069,-0.353831
19886,,9.743644,1.629418,-0.566341,0.021106,0.005862,0.022530,1.022217,-0.006592,-1.021240,-0.587330,-0.476623,0.550091,-0.353940
19887,,9.744254,1.650046,-0.574464,0.026674,0.011030,0.020591,1.021973,-0.002197,-1.019287,-0.587253,-0.476632,0.550073,-0.354085
19888,,9.762595,1.653524,-0.558413,0.028982,0.008493,0.020878,1.024414,-0.004150,-0.994385,-0.587164,-0.476648,0.550059,-0.354232
19889,,9.760222,1.627060,-0.622690,0.035442,0.009311,0.021809,1.017334,-0.002197,-1.021484,-0.587059,-0.476682,0.550033,-0.354401
19890,,9.744536,1.676827,-0.622901,0.041536,0.007698,0.022369,1.019531,0.000000,-1.017090,-0.586938,-0.476731,0.550002,-0.354584
19891,,9.730717,1.659369,-0.524314,0.035883,0.007128,0.023231,1.019775,-0.002197,-1.017090,-0.586824,-0.476766,0.549985,-0.354753
19892,,9.708576,1.569058,-0.619298,0.038172,0.010840,0.025009,1.017334,-0.002197,-1.019287,-0.586725,-0.476775,0.549973,-0.354921
19893,,9.764466,1.618465,-0.548803,0.057061,0.007551,0.022305,1.017334,0.000000,-1.019287,-0.586563,-0.476874,0.549915,-0.355146
19894,,9.712393,1.611377,-0.563273,0.054991,0.009201,0.017239,1.022217,-0.006592,-1.021240,-0.586437,-0.476950,0.549867,-0.355326
19895,,9.732333,1.649980,-0.523944,0.046727,0.010396,0.020002,1.017578,-0.006836,-1.019043,-0.586312,-0.477020,0.549813,-0.355523
19896,,9.728499,1.611505,-0.620660,0.040139,0.006269,0.013941,1.022217,-0.006592,-1.012207,-0.586209,-0.477081,0.549779,-0.355662
19897,,9.731808,1.657119,-0.564749,0.048825,0.009137,0.014079,1.022217,-0.006592,-1.021240,-0.586085,-0.477176,0.549711,-0.355845
19898,,9.713858,1.627066,-0.571672,0.038209,0.004971,0.012511,1.022217,-0.004395,-1.016846,-0.585987,-0.477238,0.549679,-0.355972
19899,,9.766593,1.630048,-0.557515,0.060761,0.006766,0.019936,1.021973,-0.002197,-1.019287,-0.585818,-0.477355,0.549611,-0.356198
19900,,9.733273,1.697272,-0.582509,0.043978,0.008819,0.016728,1.020020,-0.006592,-1.012207,-0.585721,-0.477399,0.549582,-0.356344
19901,,9.749044,1.597474,-0.564403,0.038769,0.006093,0.019042,1.015381,-0.009033,-1.018799,-0.585604,-0.477455,0.549553,-0.356506
19902,,9.749624,1.618449,-0.573237,0.043543,0.004722,0.013792,1.015381,-0.009033,-1.021240,-0.585493,-0.477525,0.549520,-0.356645
19903,,9.732542,1.656611,-0.606406,0.033054,0.003880,0.017352,1.017578,-0.009033,-1.019043,-0.585386,-0.477574,0.549503,-0.356781
19904,,9.732247,1.609193,-0.589182,0.031128,0.002590,0.015937,1.017578,-0.009033,-1.021240,-0.585298,-0.477600,0.549510,-0.356880
19905,,9.698321,1.631180,-0.596932,0.033357,0.004643,0.015145,1.022217,-0.008789,-1.019043,-0.585197,-0.477654,0.549485,-0.357012
19906,,9.751049,1.634303,-0.582452,0.029190,0.007552,0.015989,1.024658,-0.008789,-1.019043,-0.585129,-0.477663,0.549482,-0.357117
19907,,9.749958,1.620302,-0.614397,0.022732,0.006748,0.015067,1.019775,-0.004395,-1.016846,-0.585059,-0.477683,0.549469,-0.357224
19908,,9.748903,1.606095,-0.646273,0.045140,0.011458,0.018824,1.017578,-0.009033,-1.021240,-0.584963,-0.477717,0.549437,-0.357384
19909,,9.752319,1.651635,-0.590526,0.034905,0.003485,0.016173,1.017822,-0.015869,-1.020752,-0.584853,-0.477775,0.549415,-0.357520
19910,,9.751694,1.581283,-0.564224,0.037258,0.008851,0.020482,1.022217,-0.006592,-1.021240,-0.584759,-0.477796,0.549403,-0.357666
19911,,9.734072,1.573625,-0.579665,0.042778,0.006067,0.014481,1.017822,-0.013428,-1.018799,-0.584640,-0.477877,0.549355,-0.357825
19912,,9.769159,1.593814,-0.589661,0.052207,0.007508,0.013841,1.015381,-0.011230,-1.018799,-0.584525,-0.477953,0.549311,-0.357979
19913,,9.720115,1.634848,-0.548473,0.053381,0.010185,0.015983,1.024658,-0.008789,-1.016846,-0.584389,-0.478053,0.549236,-0.358182
19914,,9.739398,1.628473,-0.491974,0.045439,0.005931,0.015105,1.024658,-0.008789,-1.021240,-0.584284,-0.478109,0.549211,-0.358317
19915,,9.736520,1.579422,-0.547602,0.035812,0.005759,0.009540,1.024658,-0.011230,-1.023438,-0.584190,-0.478183,0.549165,-0.358442
19916,,9.755727,1.651983,-0.558639,0.029243,0.002924,0.017018,1.020264,-0.015625,-1.020752,-0.584119,-0.478181,0.549191,-0.358520
19917,,9.752852,1.602842,-0.614266,0.022594,0.003405,0.009914,1.022217,-0.009033,-1.021240,-0.584050,-0.478220,0.549177,-0.358604
19918,,9.736836,1.631129,-0.606549,0.027932,0.003167,0.011215,1.020020,-0.013428,-1.023193,-0.583988,-0.478235,0.549186,-0.358668
19919,,9.721885,1.648915,-0.558053,0.024277,-0.000676,0.014603,1.015381,-0.011230,-1.020996,-0.583895,-0.478274,0.549192,-0.358761
19920,,9.754157,1.565712,-0.565079,0.028738,0.003420,0.013005,1.022217,-0.009033,-1.023438,-0.583834,-0.478279,0.549210,-0.358825
19921,,9.753352,1.574505,-0.606294,0.035935,0.002801,0.013154,1.015381,-0.009033,-1.021240,-0.583725,-0.478350,0.549181,-0.358954
19922,,9.721838,1.599099,-0.541238,0.030226,0.000609,0.011498,1.017822,-0.013428,-1.011963,-0.583664,-0.478355,0.549213,-0.358995
19923,,9.737530,1.601445,-0.599301,0.022964,-0.000438,0.008796,1.017822,-0.013428,-1.020996,-0.583585,-0.478405,0.549206,-0.359068
19924,,9.754914,1.560570,-0.566231,0.027181,0.004553,0.011938,1.022461,-0.011230,-1.014404,-0.583523,-0.478422,0.549207,-0.359145
19925,,9.754443,1.592339,-0.616312,0.026746,0.000461,0.009040,1.024658,-0.008789,-1.016846,-0.583437,-0.478481,0.549191,-0.359231
19926,,9.736642,1.585529,-0.632265,0.021846,-0.001467,0.009188,1.024658,-0.010986,-1.016602,-0.583381,-0.478495,0.549216,-0.359264
19927,,9.736433,1.561710,-0.623521,0.032386,0.007236,0.009578,1.020020,-0.013428,-1.020996,-0.583299,-0.478556,0.549172,-0.359383
19928,,9.756304,1.601801,-0.584730,0.033067,0.004165,0.006280,1.024658,-0.013428,-1.020996,-0.583240,-0.478596,0.549158,-0.359447
19929,,9.739489,1.585101,-0.559360,0.025498,0.002359,0.005781,1.017822,-0.015625,-1.018555,-0.583168,-0.478657,0.549132,-0.359524
19930,,9.772723,1.570698,-0.592631,0.017248,0.003623,0.008576,1.022217,-0.009033,-1.025635,-0.583139,-0.478646,0.549153,-0.359552
19931,,9.739120,1.616386,-0.609343,0.023945,0.003499,0.004727,1.020020,-0.013428,-1.023193,-0.583076,-0.478703,0.549123,-0.359625
19932,,9.724154,1.634681,-0.560394,0.019295,0.008233,0.015054,1.024902,-0.017822,-1.022949,-0.583061,-0.478646,0.549167,-0.359657
19933,,9.756060,1.607443,-0.625429,0.012965,0.003221,0.004331,1.024658,-0.011230,-1.018799,-0.583024,-0.478672,0.549157,-0.359698
19934,,9.757220,1.596402,-0.584214,0.004905,0.003227,0.013320,1.018066,-0.020264,-1.025146,-0.583018,-0.478611,0.549215,-0.359701
19935,,9.755672,1.559766,-0.607069,0.010920,0.006170,0.012761,1.017822,-0.013428,-1.023193,-0.582978,-0.478603,0.549220,-0.359768
19936,,9.739739,1.588079,-0.598974,0.010113,0.005909,0.010964,1.020020,-0.011230,-1.018799,-0.582976,-0.478548,0.549266,-0.359774
19937,,9.738571,1.574326,-0.630552,0.001057,0.006919,0.011965,1.017822,-0.013428,-1.020996,-0.582964,-0.478512,0.549285,-0.359813
19938,,9.737979,1.527780,-0.612121,0.007445,0.006030,0.010315,1.020020,-0.013428,-1.020996,-0.582968,-0.478456,0.549328,-0.359815
19939,,9.774832,1.583950,-0.598477,0.012591,0.007046,0.005419,1.015625,-0.015869,-1.018555,-0.582940,-0.478472,0.549310,-0.359867
19940,,9.756702,1.554368,-0.604358,0.012468,0.011278,0.015240,1.015625,-0.018066,-1.025146,-0.582932,-0.478415,0.549334,-0.359918
19941,,9.739804,1.592945,-0.637019,0.013707,0.008065,0.005015,1.013184,-0.011230,-1.018799,-0.582905,-0.478433,0.549310,-0.359974
19942,,9.758899,1.587734,-0.579773,0.019165,0.011146,0.011390,1.020264,-0.015625,-1.016357,-0.582895,-0.478395,0.549326,-0.360018
19943,,9.740765,1.558184,-0.585513,0.013024,0.011133,0.008298,1.017822,-0.013428,-1.023193,-0.582872,-0.478396,0.549302,-0.360090
19944,,9.757939,1.573104,-0.610336,0.017985,0.008457,0.009248,1.017822,-0.013428,-1.016357,-0.582854,-0.478377,0.549310,-0.360132
19945,,9.744737,1.626994,-0.538012,0.016062,0.007175,0.007854,1.022461,-0.013428,-1.018799,-0.582814,-0.478396,0.549291,-0.360201
19946,,9.759219,1.561370,-0.568262,-0.005148,0.005245,0.006326,1.022217,-0.011230,-1.023438,-0.582843,-0.478331,0.549335,-0.360172
19947,,9.755749,1.490091,-0.613906,0.009178,0.008568,0.005509,1.020264,-0.015625,-1.016357,-0.582828,-0.478334,0.549319,-0.360219
19948,,9.741952,1.577341,-0.591300,0.010916,0.011109,0.000711,1.022705,-0.020264,-1.020752,-0.582850,-0.478311,0.549312,-0.360222
19949,,9.775103,1.563764,-0.623708,-0.002417,0.005476,-0.003955,1.020020,-0.013428,-1.018799,-0.582871,-0.478312,0.549303,-0.360202
19950,,9.739773,1.519441,-0.604285,0.012527,0.005372,0.002871,1.022705,-0.017822,-1.018555,-0.582863,-0.478309,0.549307,-0.360213
19951,,9.776564,1.576246,-0.590474,0.018791,0.013658,-0.001001,1.017822,-0.013428,-1.016357,-0.582850,-0.478348,0.549243,-0.360280
19952,,9.759600,1.560505,-0.564075,0.012714,0.009056,-0.002980,1.022461,-0.015625,-1.025391,-0.582856,-0.478363,0.549214,-0.360292
19953,,9.741680,1.554928,-0.578919,0.012714,0.009055,-0.002981,1.022461,-0.015625,-1.023193,-0.582849,-0.478399,0.549170,-0.360325
19954,,9.740751,1.565305,-0.619226,0.014141,0.010834,-0.005583,1.022461,-0.015625,-1.020996,-0.582882,-0.478391,0.549155,-0.360305
19955,,9.743457,1.590895,-0.554233,0.005209,0.008930,-0.000932,1.018066,-0.018066,-1.018555,-0.582888,-0.478399,0.549129,-0.360323
19956,,9.740330,1.543217,-0.608530,0.009925,0.012102,-0.007283,1.013428,-0.013428,-0.987061,-0.582922,-0.478406,0.549093,-0.360316
19957,,9.760376,1.607849,-0.578121,0.007260,0.005970,-0.009356,1.015869,-0.020264,-1.020508,-0.582930,-0.478449,0.549052,-0.360307
19958,,9.741985,1.579865,-0.583979,0.003658,0.010074,-0.001985,1.022217,-0.008789,-1.019043,-0.582918,-0.478497,0.548982,-0.360370
19959,,9.741089,1.590177,-0.624153,0.008496,0.010322,-0.004684,1.022217,-0.011230,-1.021240,-0.582927,-0.478522,0.548937,-0.360389
19960,,9.743745,1.615858,-0.559209,-0.000496,0.006753,-0.002570,1.022461,-0.013428,-1.020996,-0.582971,-0.478482,0.548957,-0.360340
19961,,9.741989,1.580706,-0.581622,-0.015565,0.004838,-0.001009,1.024902,-0.015381,-0.984863,-0.583017,-0.478437,0.548981,-0.360290
19962,,9.774744,1.544453,-0.605015,-0.002357,0.007138,-0.001423,1.020264,-0.015625,-1.018555,-0.583017,-0.478460,0.548941,-0.360320
19963,,9.727214,1.623081,-0.540648,-0.002235,0.004215,0.002230,1.022461,-0.015625,-1.018555,-0.583023,-0.478446,0.548950,-0.360315
19964,,9.742070,1.580848,-0.579888,-0.007627,0.002798,-0.001605,1.017822,-0.013428,-1.018799,-0.583056,-0.478412,0.548978,-0.360265
19965,,9.759615,1.563717,-0.554845,0.002411,0.007037,0.006809,1.022461,-0.015625,-1.016357,-0.583050,-0.478394,0.548982,-0.360293
19966,,9.743518,1.593139,-0.546666,-0.002417,0.005472,-0.003962,1.024658,-0.013428,-1.020996,-0.583077,-0.478384,0.548981,-0.360263
19967,,9.741758,1.558015,-0.569210,-0.004590,0.005098,-0.000617,1.018066,-0.018066,-1.018555,-0.583096,-0.478369,0.548985,-0.360246
19968,,9.725188,1.564945,-0.552137,-0.005706,0.004078,-0.000214,1.020264,-0.018066,-1.022949,-0.583120,-0.478342,0.549003,-0.360216
19969,,9.760114,1.586811,-0.561575,-0.011843,0.004066,-0.003307,1.020020,-0.013428,-1.014160,-0.583159,-0.478316,0.549016,-0.360168
19970,,9.723836,1.552888,-0.583220,-0.008431,0.002537,-0.003402,1.015625,-0.018066,-1.018311,-0.583188,-0.478296,0.549032,-0.360122
19971,,9.759155,1.597726,-0.601586,-0.006633,0.006740,-0.005664,1.015625,-0.013428,-1.014160,-0.583225,-0.478287,0.549023,-0.360089
19972,,9.758693,1.575388,-0.592121,-0.009860,0.000757,-0.000802,1.022705,-0.017578,-0.984619,-0.583246,-0.478262,0.549050,-0.360046
19973,,9.741643,1.559810,-0.566263,-0.007315,0.003556,-0.003806,1.024658,-0.013428,-1.018799,-0.583273,-0.478252,0.549055,-0.360008
19974,,9.725415,1.589948,-0.558180,-0.004026,0.004951,-0.007554,1.017822,-0.015869,-1.023193,-0.583295,-0.478270,0.549029,-0.359989
19975,,9.759826,1.589583,-0.558727,-0.013019,0.001378,-0.005447,1.020020,-0.013428,-1.023193,-0.583332,-0.478251,0.549048,-0.359925
19976,,9.758439,1.577568,-0.590502,-0.016801,0.000481,-0.005695,1.020264,-0.015625,-1.016357,-0.583382,-0.478214,0.549082,-0.359841
19977,,9.757943,1.555418,-0.581172,-0.011099,0.002658,-0.004055,1.022217,-0.011230,-1.021240,-0.583416,-0.478194,0.549097,-0.359790
19978,,9.741710,1.585453,-0.573322,-0.006941,-0.000274,-0.004892,1.027100,-0.013428,-1.020996,-0.583436,-0.478189,0.549113,-0.359738
19979,,9.759544,1.591726,-0.557552,-0.002788,0.003047,-0.004304,1.020020,-0.009033,-1.019043,-0.583452,-0.478194,0.549111,-0.359710
19980,,9.773063,1.537409,-0.628950,-0.004338,0.004191,-0.005356,1.020264,-0.015625,-1.020752,-0.583479,-0.478189,0.549110,-0.359674
19981,,9.741472,1.587274,-0.572323,0.003422,0.003416,-0.012138,1.017822,-0.011230,-1.014404,-0.583495,-0.478233,0.549077,-0.359641
19982,,9.741776,1.610826,-0.580945,0.003972,0.004581,-0.005604,1.022461,-0.017822,-1.022949,-0.583502,-0.478255,0.549056,-0.359631
19983,,9.759197,1.594421,-0.555927,-0.005085,0.005594,-0.004614,1.020020,-0.010986,-0.987305,-0.583531,-0.478249,0.549050,-0.359602
19984,,9.741261,1.589036,-0.571032,-0.000122,0.002923,-0.003654,1.022217,-0.009033,-1.025635,-0.583536,-0.478264,0.549040,-0.359591
19985,,9.741190,1.589506,-0.570921,-0.006194,-0.001680,-0.005638,1.020020,-0.011230,-1.018799,-0.583549,-0.478271,0.549054,-0.359538
19986,,9.741106,1.590062,-0.570810,-0.010353,0.001250,-0.004802,1.015625,-0.015869,-1.018555,-0.583582,-0.478252,0.549074,-0.359479
19987,,9.739710,1.578177,-0.602721,-0.011215,-0.000676,-0.009140,1.022461,-0.017822,-1.020752,-0.583616,-0.478252,0.549086,-0.359405
19988,,9.757498,1.584667,-0.587026,-0.008803,0.000106,-0.003750,1.020264,-0.015625,-1.014160,-0.583637,-0.478241,0.549105,-0.359357
19989,,9.740868,1.591761,-0.570133,-0.008376,0.004195,-0.000868,1.017822,-0.011230,-1.023438,-0.583663,-0.478218,0.549117,-0.359326
19990,,9.758716,1.597948,-0.554241,-0.013390,-0.001054,-0.005797,1.022705,-0.020020,-1.016113,-0.583696,-0.478201,0.549144,-0.359255
19991,,9.705357,1.603922,-0.609727,-0.012274,-0.000034,-0.006200,1.022217,-0.008789,-1.014404,-0.583729,-0.478188,0.549163,-0.359188
19992,,9.758538,1.599176,-0.553829,-0.015999,0.000731,-0.003910,1.024658,-0.008789,-1.023438,-0.583769,-0.478157,0.549191,-0.359122
19993,,9.773814,1.580186,-0.602137,-0.017862,0.001112,-0.002766,1.020264,-0.015625,-1.023193,-0.583812,-0.478117,0.549225,-0.359053
19994,,9.739254,1.581730,-0.600764,-0.015688,0.001490,-0.006111,1.022461,-0.011230,-1.018799,-0.583859,-0.478088,0.549248,-0.358979
19995,,9.758336,1.600805,-0.552676,-0.015688,0.001489,-0.006112,1.013184,-0.013672,-1.016357,-0.583905,-0.478063,0.549269,-0.358907
19996,,9.756991,1.588842,-0.584160,-0.011168,0.007238,-0.005176,1.029297,-0.010986,-1.021240,-0.583954,-0.478036,0.549268,-0.358864
19997,,9.721122,1.578104,-0.614606,-0.005637,0.004429,-0.011153,1.022461,-0.013428,-1.016602,-0.583992,-0.478049,0.549251,-0.358811
19998,,9.740522,1.620409,-0.575301,-0.015870,0.002748,-0.012311,1.024658,-0.013184,-1.000732,-0.584053,-0.478036,0.549254,-0.358725
19999,,9.772801,1.562479,-0.589928,-0.013893,0.005692,-0.008373,1.015381,-0.009033,-1.014404,-0.584110,-0.478015,0.549254,-0.358661
20000,,9.756449,1.593119,-0.581557,-0.013639,0.004790,-0.013116,1.020020,-0.013428,-1.020996,-0.584171,-0.478009,0.549244,-0.358585
20001,,9.721789,1.595379,-0.579794,-0.016249,0.006572,-0.011228,1.022461,-0.015625,-1.011963,-0.584241,-0.477987,0.549239,-0.358508
20002,,9.756158,1.595533,-0.579831,-0.018112,0.006951,-0.010086,1.019775,-0.004395,-1.016846,-0.584313,-0.477956,0.549237,-0.358434
20003,,9.737739,1.568241,-0.585591,-0.017054,0.006309,-0.013031,1.017822,-0.011230,-1.020996,-0.584388,-0.477937,0.549230,-0.358349
20004,,9.740077,1.594747,-0.520348,-0.014823,0.008352,-0.013833,1.022461,-0.015625,-1.018555,-0.584465,-0.477919,0.549213,-0.358271
20005,,9.704522,1.607406,-0.559469,-0.021642,0.005142,-0.015089,1.020020,-0.011230,-1.016602,-0.584551,-0.477894,0.549213,-0.358165
20006,,9.720875,1.602567,-0.575282,-0.027089,0.002053,-0.021491,1.015381,-0.006836,-1.019043,-0.584652,-0.477877,0.549215,-0.358021
20007,,9.737651,1.565106,-0.541339,-0.028206,0.001027,-0.021096,1.017578,-0.004395,-1.021484,-0.584752,-0.477857,0.549224,-0.357869
20008,,9.738059,1.612926,-0.558520,-0.031679,0.000880,-0.023558,1.015625,-0.013672,-1.023193,-0.584868,-0.477829,0.549237,-0.357698
20009,,9.754307,1.608720,-0.574509,-0.039246,-0.000936,-0.024080,1.022217,-0.006592,-1.014648,-0.584995,-0.477789,0.549264,-0.357502
20010,,9.734798,1.593117,-0.621695,-0.038938,-0.000179,-0.026288,1.019775,-0.006592,-1.016846,-0.585127,-0.477753,0.549283,-0.357305
20011,,9.753831,1.636976,-0.582095,-0.027280,0.003301,-0.027719,1.022217,-0.008789,-1.010010,-0.585243,-0.477750,0.549268,-0.357142
20012,,9.754965,1.675160,-0.557883,-0.050363,0.001670,-0.028193,1.024658,-0.011230,-1.023438,-0.585411,-0.477683,0.549296,-0.356913
20013,,9.735989,1.626611,-0.554908,-0.053967,-0.000517,-0.022267,1.017578,-0.006836,-1.019043,-0.585571,-0.477594,0.549353,-0.356683
20014,,9.752209,1.622701,-0.570787,-0.056749,-0.003733,-0.028038,1.024658,-0.013428,-1.016602,-0.585737,-0.477518,0.549408,-0.356425
20015,,9.702211,1.668153,-0.529029,-0.059258,0.001348,-0.021067,1.015137,-0.004639,-1.021484,-0.585913,-0.477406,0.549471,-0.356189
20016,,9.735146,1.657265,-0.561139,-0.067944,-0.001515,-0.021218,1.022217,-0.006592,-1.023682,-0.586099,-0.477277,0.549555,-0.355927
20017,,9.749048,1.628078,-0.641169,-0.050456,0.001248,-0.017313,1.017334,-0.002197,-1.017090,-0.586247,-0.477181,0.549612,-0.355725
20018,,9.754590,1.747837,-0.537704,-0.054553,-0.000442,-0.015393,1.022217,-0.009033,-1.021240,-0.586395,-0.477070,0.549685,-0.355517
20019,,9.733133,1.650564,-0.590604,-0.065360,-0.002049,-0.009658,1.022217,-0.004395,-1.019287,-0.586555,-0.476915,0.549796,-0.355289
20020,,9.765264,1.570539,-0.596818,-0.047357,-0.001051,-0.015237,1.017822,-0.011230,-1.023438,-0.586682,-0.476829,0.549854,-0.355103
20021,,9.751811,1.671522,-0.540869,-0.041933,0.008279,-0.007355,1.022217,-0.004395,-1.019287,-0.586810,-0.476718,0.549899,-0.354971
20022,,9.748946,1.625311,-0.595596,-0.045001,-0.001943,-0.012395,1.021973,-0.002197,-1.019287,-0.586923,-0.476635,0.549962,-0.354800
20023,,9.764559,1.630417,-0.652409,-0.024107,0.005583,-0.007075,1.024414,-0.004395,-1.023682,-0.587001,-0.476580,0.549983,-0.354711
20024,,9.766871,1.655765,-0.587258,-0.006276,0.002899,-0.006783,1.024414,-0.004395,-1.014648,-0.587026,-0.476584,0.549978,-0.354672
20025,,9.767936,1.668954,-0.554651,-0.011670,0.001464,-0.010668,1.015381,-0.006836,-1.012207,-0.587069,-0.476583,0.549981,-0.354597
20026,,9.732672,1.625172,-0.535894,-0.005967,0.003668,-0.008982,1.019775,-0.004395,-1.021484,-0.587098,-0.476595,0.549966,-0.354556
20027,,9.734032,1.661230,-0.511875,-0.012421,0.002858,-0.009921,1.019775,0.000000,-1.012695,-0.587146,-0.476587,0.549968,-0.354485
20028,,9.731824,1.660375,-0.584638,-0.019496,0.000507,-0.006465,1.015381,-0.006836,-1.016846,-0.587196,-0.476555,0.549995,-0.354403
20029,,9.731439,1.638221,-0.575476,-0.012678,0.003741,-0.005170,1.017334,0.000000,-1.019287,-0.587239,-0.476531,0.550006,-0.354347
20030,,9.766133,1.661003,-0.584737,-0.010115,0.000323,-0.009615,1.019775,-0.002197,-1.023926,-0.587271,-0.476537,0.550009,-0.354283
20031,,9.731235,1.639719,-0.574665,-0.001325,0.006500,-0.004348,1.024170,0.000000,-1.023926,-0.587292,-0.476540,0.549994,-0.354267
20032,,9.732082,1.629591,-0.533173,0.002097,0.004995,-0.004431,1.021973,-0.002197,-1.023926,-0.587299,-0.476557,0.549974,-0.354262
20033,,9.748121,1.656806,-0.598876,0.001345,0.006390,-0.003682,1.026611,-0.004150,-1.003418,-0.587313,-0.476566,0.549956,-0.354255
20034,,9.764776,1.650528,-0.614879,0.011585,0.008122,-0.002468,1.017334,0.000000,-1.019287,-0.587301,-0.476603,0.549913,-0.354292
20035,,9.731467,1.663682,-0.581172,0.015810,0.006875,-0.000744,1.021973,-0.002197,-1.017090,-0.587277,-0.476646,0.549875,-0.354334
20036,,9.749337,1.669464,-0.564849,0.016846,0.012493,-0.002231,1.021973,0.002441,-1.019531,-0.587266,-0.476687,0.549813,-0.354393
20037,,9.749383,1.669424,-0.564165,0.007180,0.005660,0.001653,1.012939,-0.002441,-1.019287,-0.587254,-0.476700,0.549799,-0.354416
20038,,9.731348,1.640481,-0.570567,0.018585,0.010072,0.005028,1.015137,-0.002197,-1.012451,-0.587221,-0.476728,0.549760,-0.354493
20039,,9.767693,1.697330,-0.556108,0.009355,0.006061,-0.001688,1.020020,-0.006592,-1.010010,-0.587211,-0.476756,0.549734,-0.354513
20040,,9.765974,1.639306,-0.570465,0.009098,0.006946,0.003065,1.024414,-0.006592,-1.023682,-0.587193,-0.476772,0.549712,-0.354556
20041,,9.749397,1.645472,-0.553381,0.021201,0.008306,0.003136,1.012695,0.000000,-1.019287,-0.587152,-0.476817,0.549670,-0.354628
20042,,9.734306,1.686613,-0.512741,0.017469,0.009041,0.005415,1.022217,-0.006592,-1.014648,-0.587115,-0.476847,0.549634,-0.354705
20043,,9.749649,1.644363,-0.552232,0.014799,0.009149,0.004748,1.015381,-0.006836,-1.014404,-0.587090,-0.476867,0.549604,-0.354766
20044,,9.732221,1.660970,-0.576277,0.011041,0.001986,0.003017,1.021729,0.002197,-1.024170,-0.587051,-0.476900,0.549591,-0.354805
20045,,9.748658,1.631305,-0.583805,0.016975,0.009548,0.001405,1.021973,-0.002197,-1.014893,-0.587027,-0.476935,0.549548,-0.354863
20046,,9.733542,1.672569,-0.543261,0.025423,0.007052,0.004852,1.024414,-0.004395,-1.017090,-0.586971,-0.476989,0.549507,-0.354950
20047,,9.733652,1.672006,-0.543025,0.017855,0.005215,0.004306,1.021973,-0.004395,-1.025879,-0.586928,-0.477026,0.549482,-0.355009
20048,,9.733428,1.648806,-0.533944,0.014745,0.007489,0.002187,1.019775,-0.004395,-1.014648,-0.586898,-0.477060,0.549447,-0.355066
20049,,9.732358,1.636143,-0.565766,0.012516,0.005434,0.002973,1.024414,-0.002197,-1.017090,-0.586871,-0.477086,0.549427,-0.355107
20050,,9.735017,1.683403,-0.509773,0.013579,0.004804,0.000026,1.019775,-0.004395,-1.014648,-0.586843,-0.477124,0.549399,-0.355145
20051,,9.716071,1.665212,-0.557502,-0.001866,0.000370,0.001140,1.021973,-0.002197,-1.021484,-0.586840,-0.477121,0.549416,-0.355129
20052,,9.733589,1.648221,-0.532817,-0.002747,0.004698,-0.001766,1.021973,0.000000,-1.014893,-0.586854,-0.477116,0.549413,-0.355116
20053,,9.733866,1.671311,-0.541332,-0.005390,-0.001436,-0.003883,1.019775,-0.004395,-1.014648,-0.586862,-0.477120,0.549430,-0.355072
20054,,9.749411,1.652373,-0.590056,-0.008578,0.000451,0.004955,1.019775,-0.002197,-1.019287,-0.586868,-0.477085,0.549467,-0.355050
20055,,9.749758,1.675095,-0.598476,-0.010314,0.002864,-0.002309,1.019775,-0.002197,-1.010254,-0.586898,-0.477063,0.549484,-0.355007
20056,,9.731002,1.601051,-0.587411,-0.003810,0.005327,0.001180,1.021973,-0.002197,-1.008057,-0.586912,-0.477044,0.549490,-0.354999
20057,,9.732815,1.658902,-0.572189,-0.004172,0.002903,0.000827,1.013184,-0.009033,-1.014404,-0.586922,-0.477030,0.549502,-0.354982
20058,,9.731374,1.623839,-0.595256,-0.002747,0.004698,-0.001766,1.022217,-0.004395,-1.016846,-0.586934,-0.477028,0.549497,-0.354972
20059,,9.698317,1.659959,-0.570499,-0.000440,0.002164,-0.001453,1.015137,-0.002197,-1.017090,-0.586937,-0.477033,0.549500,-0.354957
20060,,9.750298,1.642416,-0.546533,-0.013423,0.005138,-0.004430,1.019531,0.000000,-1.017090,-0.586982,-0.477004,0.549509,-0.354908
20061,,9.714895,1.654358,-0.586069,-0.013837,0.001058,-0.007336,1.015137,0.000000,-1.019287,-0.587024,-0.476988,0.549524,-0.354836
20062,,9.767177,1.659733,-0.570742,-0.017468,0.005106,0.000047,1.020020,-0.009033,-1.019043,-0.587074,-0.476930,0.549555,-0.354784
20063,,9.714486,1.632559,-0.576088,-0.026381,0.001864,-0.008867,1.017334,-0.002197,-1.012451,-0.587150,-0.476880,0.549587,-0.354674
20064,,9.747769,1.620205,-0.608614,-0.018323,0.003189,-0.004315,1.021973,-0.004395,-1.021484,-0.587198,-0.476845,0.549606,-0.354614
20065,,9.733585,1.674813,-0.535529,-0.021433,0.005462,-0.006437,1.017334,-0.002197,-1.017090,-0.587268,-0.476796,0.549624,-0.354534
20066,,9.749068,1.656701,-0.583547,-0.027446,0.002486,-0.005930,1.021973,-0.002197,-1.017090,-0.587340,-0.476738,0.549659,-0.354439
20067,,9.749793,1.646937,-0.541917,-0.031231,0.001564,-0.006209,1.017578,-0.004395,-1.016846,-0.587423,-0.476667,0.549707,-0.354324
20068,,9.715176,1.648702,-0.540111,-0.034784,0.005999,-0.009786,1.021973,-0.002197,-1.014893,-0.587528,-0.476592,0.549735,-0.354207
20069,,9.748747,1.659567,-0.580766,-0.040437,0.005442,-0.008931,1.021973,-0.002197,-1.017090,-0.587648,-0.476494,0.549781,-0.354068
20070,,9.731325,1.621525,-0.545724,-0.042667,0.003379,-0.008157,1.021973,-0.002197,-1.021484,-0.587762,-0.476396,0.549834,-0.353928
20071,,9.732607,1.657742,-0.521084,-0.036707,0.004701,-0.011222,1.024658,-0.008789,-1.012207,-0.587875,-0.476317,0.549870,-0.353790
20072,,9.733064,1.704601,-0.537274,-0.044227,0.004505,-0.009233,1.017334,0.000000,-1.008057,-0.587992,-0.476224,0.549912,-0.353655
20073,,9.731507,1.670804,-0.559673,-0.053355,0.003790,-0.010866,1.022217,-0.004395,-1.012451,-0.588142,-0.476097,0.549982,-0.353471
20074,,9.732145,1.661564,-0.517530,-0.051491,0.003418,-0.012016,1.024170,0.002441,-1.019531,-0.588283,-0.475984,0.550039,-0.353297
20075,,9.714457,1.680133,-0.540604,-0.056033,0.003879,-0.011563,1.019531,0.002197,-1.014893,-0.588440,-0.475850,0.550111,-0.353103
20076,,9.747717,1.668506,-0.572382,-0.065425,0.004032,-0.008454,1.021973,0.000000,-1.017090,-0.588612,-0.475683,0.550203,-0.352899
20077,,9.747245,1.647201,-0.562377,-0.060318,0.003452,-0.015888,1.019775,-0.002197,-1.019287,-0.588786,-0.475550,0.550274,-0.352680
20078,,9.746199,1.659791,-0.601965,-0.057651,0.003336,-0.015229,1.019775,0.000244,-1.003662,-0.588942,-0.475435,0.550329,-0.352487
20079,,9.713394,1.663597,-0.526313,-0.064457,0.007965,-0.012538,1.019531,0.002197,-1.014893,-0.589132,-0.475272,0.550402,-0.352276
20080,,9.762773,1.600296,-0.557205,-0.059610,0.008266,-0.015212,1.019775,-0.002197,-1.017090,-0.589311,-0.475136,0.550451,-0.352083
20081,,9.711908,1.654986,-0.555185,-0.038421,0.008728,-0.016017,1.017090,0.004395,-1.017334,-0.589447,-0.475058,0.550467,-0.351936
20082,,9.747838,1.713802,-0.539131,-0.046390,0.010677,-0.015496,1.019531,0.004639,-1.019531,-0.589596,-0.474965,0.550480,-0.351791
20083,,9.779726,1.667755,-0.594613,-0.050407,0.004372,-0.012521,1.021729,0.009033,-1.013184,-0.589743,-0.474849,0.550538,-0.351611
20084,,9.711915,1.705398,-0.567683,-0.017446,0.011708,-0.009495,1.019531,0.002197,-1.017334,-0.589822,-0.474814,0.550518,-0.351555
20085,,9.729270,1.689438,-0.542355,-0.042802,-0.000013,-0.013429,1.017090,0.006836,-1.015137,-0.589940,-0.474731,0.550574,-0.351383
20086,,9.759600,1.585433,-0.613888,-0.029168,0.006488,-0.010753,1.019287,0.006836,-1.017578,-0.590031,-0.474680,0.550582,-0.351286
20087,,9.694928,1.659049,-0.490333,-0.017461,0.003826,-0.013547,1.017090,0.006836,-1.015137,-0.590099,-0.474665,0.550582,-0.351192
20088,,9.728128,1.647957,-0.523080,-0.024328,-0.001074,-0.017457,1.019531,0.004639,-1.012939,-0.590171,-0.474657,0.550591,-0.351068
20089,,9.727823,1.649895,-0.522652,-0.018003,0.002704,-0.020126,1.024170,0.002441,-1.015137,-0.590249,-0.474661,0.550579,-0.350950
20090,,9.727743,1.674885,-0.530695,-0.022149,-0.000655,-0.020795,1.021484,0.011475,-1.010986,-0.590318,-0.474676,0.550567,-0.350832
20091,,9.743856,1.647892,-0.538545,-0.013510,0.000602,-0.023149,1.019287,0.009033,-1.019775,-0.590385,-0.474705,0.550546,-0.350713
20092,,9.726146,1.690615,-0.570896,-0.016676,0.001224,-0.027845,1.021484,0.011230,-1.020020,-0.590467,-0.474739,0.550514,-0.350580
20093,,9.743553,1.698593,-0.554495,-0.015732,0.006406,-0.018337,1.024170,0.004639,-1.010742,-0.590546,-0.474738,0.550491,-0.350483
20094,,9.708931,1.724344,-0.561457,-0.009415,0.002312,-0.025056,1.019287,0.006836,-1.019775,-0.590604,-0.474792,0.550442,-0.350389
20095,,9.744879,1.727153,-0.488501,-0.012488,0.006219,-0.024622,1.019287,0.006836,-1.017578,-0.590686,-0.474819,0.550400,-0.350282
20096,,9.726153,1.757602,-0.552995,-0.015693,0.000165,-0.019834,1.017090,0.009033,-1.017578,-0.590739,-0.474850,0.550376,-0.350188
20097,,9.726618,1.748720,-0.511598,-0.024113,0.004266,-0.020765,1.021729,0.006836,-1.019775,-0.590837,-0.474835,0.550368,-0.350055
20098,,9.725056,1.715937,-0.534695,-0.023311,0.004518,-0.018954,1.017090,0.009033,-1.017578,-0.590918,-0.474833,0.550348,-0.349952
20099,,9.708440,1.769932,-0.534121,-0.026295,0.003832,-0.017443,1.019287,0.006836,-1.017578,-0.591014,-0.474803,0.550353,-0.349822
20100,,9.723479,1.707776,-0.565226,-0.033157,0.006796,-0.017313,1.017090,0.009033,-1.019775,-0.591122,-0.474765,0.550346,-0.349704
20101,,9.724454,1.744325,-0.540146,-0.035695,0.003939,-0.014359,1.026123,0.009277,-1.017578,-0.591235,-0.474698,0.550375,-0.349558
20102,,9.740812,1.716617,-0.547106,-0.043626,0.007505,-0.011283,1.017090,0.009033,-1.019775,-0.591358,-0.474613,0.550396,-0.349432
20103,,9.738032,1.625480,-0.585452,-0.034896,0.004186,-0.012556,1.021729,0.002197,-1.021729,-0.591467,-0.474543,0.550427,-0.349294
20104,,9.723122,1.759495,-0.577122,-0.008482,0.015367,-0.011493,1.019043,0.013428,-1.020020,-0.591518,-0.474563,0.550352,-0.349298
20105,,9.727189,1.831063,-0.454078,-0.029690,0.014813,-0.010772,1.021484,0.013672,-1.013428,-0.591641,-0.474485,0.550347,-0.349205
20106,,9.720164,1.646417,-0.604668,-0.043233,0.011548,-0.008371,1.023682,0.015869,-1.015869,-0.591775,-0.474376,0.550370,-0.349088
