// Start Time: Unknown
// Update Rate: 100.0Hz
// Filter Profile: human (46.1)
// Option Flags: AHS Disabled ICC Disabled 
// Firmware Version: 4.3.4
PacketCounter,SampleTimeFine,Acc_X,Acc_Y,Acc_Z,Gyr_X,Gyr_Y,Gyr_Z,Mag_X,Mag_Y,Mag_Z,Quat_q0,Quat_q1,Quat_q2,Quat_q3
27626,,9.652746,1.627589,-1.257754,0.013810,0.021403,-0.016080,0.834229,0.326904,-0.463867,0.642514,-0.042716,-0.751491,-0.143568
27627,,9.666098,1.620275,-1.295139,0.012175,0.020715,-0.013319,0.841309,0.322510,-0.463867,0.642519,-0.042715,-0.751491,-0.143548
27628,,9.720977,1.609879,-1.272230,0.014405,0.020881,-0.009322,0.836670,0.322510,-0.466064,0.642532,-0.042713,-0.751485,-0.143520
27629,,9.688645,1.654174,-1.275807,0.014408,0.020881,-0.009324,0.834473,0.320313,-0.461670,0.642541,-0.042720,-0.751485,-0.143480
27630,,9.666865,1.630360,-1.230499,0.006872,0.018997,-0.009543,0.834229,0.329102,-0.464111,0.642546,-0.042740,-0.751481,-0.143476
27631,,9.667775,1.576639,-1.231601,0.009137,0.022979,-0.008675,0.834229,0.324707,-0.468262,0.642562,-0.042764,-0.751469,-0.143453
27632,,9.703615,1.600986,-1.253049,0.014011,0.021808,-0.007947,0.838867,0.326904,-0.468262,0.642578,-0.042771,-0.751461,-0.143423
27633,,9.681442,1.569260,-1.266972,0.014614,0.020708,-0.007075,0.834229,0.326904,-0.466064,0.642589,-0.042785,-0.751460,-0.143375
27634,,9.667801,1.570905,-1.284994,0.007347,0.026277,-0.011305,0.834473,0.320313,-0.461670,0.642618,-0.042800,-0.751433,-0.143384
27635,,9.676422,1.605031,-1.287396,0.017674,0.018442,-0.011726,0.832031,0.326904,-0.470459,0.642617,-0.042789,-0.751443,-0.143339
27636,,9.717468,1.595596,-1.284642,0.016073,0.021568,-0.012098,0.838867,0.322510,-0.457275,0.642630,-0.042770,-0.751438,-0.143310
27637,,9.658733,1.595023,-1.272150,0.015670,0.022495,-0.010721,0.836670,0.324707,-0.463867,0.642645,-0.042766,-0.751434,-0.143270
27638,,9.685226,1.640747,-1.286356,0.020140,0.022253,-0.008610,0.836670,0.322510,-0.470215,0.642665,-0.042746,-0.751428,-0.143215
27639,,9.698300,1.695032,-1.261330,0.009159,0.022976,-0.008695,0.834473,0.322510,-0.463867,0.642682,-0.042770,-0.751417,-0.143192
27640,,9.645416,1.597638,-1.286666,0.006234,0.016863,-0.001413,0.832031,0.322266,-0.461670,0.642683,-0.042828,-0.751417,-0.143167
27641,,9.658571,1.651364,-1.261660,0.008136,0.025586,-0.002305,0.829834,0.322266,-0.461670,0.642714,-0.042878,-0.751395,-0.143129
27642,,9.677589,1.608749,-1.273916,0.013845,0.026959,-0.001577,0.832031,0.322266,-0.461670,0.642756,-0.042896,-0.751369,-0.143070
27643,,9.632797,1.606422,-1.240894,0.004466,0.024556,-0.001293,0.834473,0.320313,-0.465820,0.642782,-0.042963,-0.751348,-0.143042
27644,,9.669693,1.575581,-1.264870,0.008336,0.025414,-0.000055,0.839111,0.320313,-0.461670,0.642818,-0.043008,-0.751323,-0.143002
27645,,9.715374,1.585602,-1.233905,0.008339,0.025414,-0.000057,0.834473,0.322510,-0.468018,0.642850,-0.043066,-0.751301,-0.142955
27646,,9.711315,1.565075,-1.258963,0.007745,0.026513,-0.000936,0.838867,0.326904,-0.463867,0.642888,-0.043113,-0.751272,-0.142924
27647,,9.725132,1.556386,-1.295811,0.007510,0.022872,-0.000055,0.836670,0.322510,-0.466064,0.642910,-0.043175,-0.751258,-0.142879
27648,,9.693161,1.607668,-1.239948,0.008755,0.024486,-0.001441,0.834473,0.320313,-0.468018,0.642940,-0.043222,-0.751235,-0.142850
27649,,9.675401,1.588079,-1.285071,0.006152,0.029637,-0.001318,0.834717,0.313477,-0.463379,0.642986,-0.043279,-0.751199,-0.142816
27650,,9.685085,1.566950,-1.289766,0.009815,0.026270,-0.005084,0.834473,0.320313,-0.463623,0.643022,-0.043299,-0.751173,-0.142784
27651,,9.670956,1.630264,-1.245379,0.004080,0.025482,0.000069,0.834473,0.320313,-0.468018,0.643053,-0.043371,-0.751148,-0.142753
27652,,9.640540,1.564736,-1.254370,0.007762,0.026512,-0.000947,0.836670,0.324707,-0.466064,0.643092,-0.043416,-0.751119,-0.142720
27653,,9.677534,1.533911,-1.277971,0.012282,0.030082,-0.001970,0.834473,0.322510,-0.463867,0.643140,-0.043451,-0.751085,-0.142666
27654,,9.686400,1.567141,-1.279618,0.015968,0.031111,-0.002986,0.836670,0.320313,-0.461670,0.643196,-0.043463,-0.751047,-0.142613
27655,,9.718310,1.578336,-1.268407,0.014948,0.028740,-0.005237,0.839111,0.320313,-0.465820,0.643238,-0.043478,-0.751021,-0.142559
27656,,9.668256,1.610158,-1.259869,0.006772,0.028538,-0.000460,0.836914,0.320313,-0.470215,0.643284,-0.043528,-0.750984,-0.142529
27657,,9.669420,1.555817,-1.260314,0.009005,0.023726,-0.005091,0.841309,0.320313,-0.465820,0.643306,-0.043566,-0.750969,-0.142496
27658,,9.691858,1.588618,-1.241999,0.009494,0.031005,-0.006868,0.836914,0.315918,-0.469971,0.643356,-0.043586,-0.750927,-0.142481
27659,,9.656288,1.557442,-1.275427,0.008193,0.025583,-0.002341,0.839111,0.320313,-0.463623,0.643387,-0.043636,-0.750906,-0.142442
27660,,9.688158,1.576523,-1.205108,0.014969,0.028739,-0.005246,0.836426,0.326904,-0.461914,0.643432,-0.043642,-0.750875,-0.142397
27661,,9.696932,1.602226,-1.266263,0.009262,0.027365,-0.005988,0.836670,0.320313,-0.465820,0.643467,-0.043673,-0.750849,-0.142367
27662,,9.726279,1.484373,-1.288191,0.000934,0.026742,-0.009360,0.839111,0.320313,-0.465820,0.643498,-0.043714,-0.750816,-0.142390
27663,,9.702452,1.569715,-1.236820,0.021490,0.023859,-0.010006,0.832275,0.315674,-0.468018,0.643520,-0.043693,-0.750811,-0.142326
27664,,9.684668,1.558723,-1.223042,0.011750,0.026191,-0.011509,0.832275,0.315674,-0.463623,0.643550,-0.043687,-0.750788,-0.142311
27665,,9.661750,1.581637,-1.233991,0.018407,0.021732,-0.008119,0.836670,0.320313,-0.465820,0.643565,-0.043685,-0.750787,-0.142252
27666,,9.702908,1.571911,-1.230438,0.011531,0.026950,-0.007882,0.829834,0.322266,-0.457275,0.643601,-0.043690,-0.750760,-0.142224
27667,,9.689440,1.573421,-1.248517,0.012108,0.021453,-0.009744,0.834229,0.324707,-0.459473,0.643612,-0.043702,-0.750756,-0.142193
27668,,9.681089,1.540948,-1.242072,0.008854,0.023893,-0.007371,0.834473,0.322510,-0.466064,0.643636,-0.043721,-0.750738,-0.142173
27669,,9.698267,1.607863,-1.248771,0.011293,0.023311,-0.006996,0.839111,0.320313,-0.470215,0.643656,-0.043745,-0.750727,-0.142137
27670,,9.694109,1.595757,-1.214984,0.006768,0.019739,-0.005977,0.836670,0.320313,-0.457275,0.643664,-0.043786,-0.750719,-0.142127
27671,,9.703858,1.566964,-1.279622,-0.003041,0.018261,-0.004337,0.832031,0.322266,-0.459473,0.643663,-0.043869,-0.750714,-0.142135
27672,,9.677586,1.522461,-1.261785,0.010460,0.020769,-0.006988,0.832275,0.320068,-0.465820,0.643677,-0.043886,-0.750706,-0.142107
27673,,9.677724,1.523082,-1.259971,0.012718,0.020355,-0.008869,0.836914,0.318115,-0.463623,0.643684,-0.043900,-0.750706,-0.142071
27674,,9.682936,1.490016,-1.233401,0.009511,0.022202,-0.012388,0.834473,0.320313,-0.459473,0.643699,-0.043901,-0.750694,-0.142066
27675,,9.699966,1.557495,-1.240433,0.013366,0.018665,-0.013879,0.836914,0.320313,-0.472412,0.643696,-0.043895,-0.750701,-0.142043
27676,,9.694912,1.592583,-1.263293,0.003391,0.021752,-0.011762,0.841553,0.315918,-0.457031,0.643708,-0.043921,-0.750686,-0.142061
27677,,9.705427,1.517812,-1.271277,0.006834,0.019145,-0.011877,0.839111,0.318115,-0.465820,0.643707,-0.043944,-0.750686,-0.142057
27678,,9.677072,1.582935,-1.248158,0.011530,0.018150,-0.013378,0.839111,0.318115,-0.465820,0.643707,-0.043937,-0.750689,-0.142046
27679,,9.672753,1.571342,-1.214652,0.008862,0.019493,-0.010126,0.834473,0.318115,-0.465820,0.643709,-0.043959,-0.750689,-0.142029
27680,,9.700525,1.554868,-1.290720,0.005246,0.022267,-0.012274,0.839111,0.320313,-0.468018,0.643723,-0.043976,-0.750674,-0.142040
27681,,9.723664,1.533833,-1.275606,0.018094,0.022072,-0.012648,0.832275,0.315674,-0.461426,0.643735,-0.043957,-0.750673,-0.141997
27682,,9.736268,1.588486,-1.251123,0.013905,0.013763,-0.009849,0.836914,0.318115,-0.461426,0.643721,-0.043959,-0.750691,-0.141964
27683,,9.695337,1.599555,-1.251166,0.009713,0.022034,-0.010147,0.836914,0.320313,-0.468018,0.643733,-0.043977,-0.750683,-0.141944
27684,,9.637519,1.544323,-1.242003,0.004592,0.019556,-0.010012,0.829834,0.320068,-0.465820,0.643738,-0.044007,-0.750676,-0.141951
27685,,9.700969,1.559398,-1.281882,0.001744,0.021066,-0.009019,0.839111,0.320313,-0.468018,0.643746,-0.044055,-0.750666,-0.141957
27686,,9.687182,1.569062,-1.240947,0.002160,0.020136,-0.010395,0.836914,0.318115,-0.463623,0.643752,-0.044092,-0.750655,-0.141974
27687,,9.674770,1.516233,-1.262062,0.004598,0.019556,-0.010015,0.837158,0.311523,-0.463379,0.643753,-0.044128,-0.750652,-0.141972
27688,,9.700874,1.570440,-1.216787,0.010630,0.023979,-0.016057,0.836914,0.318115,-0.463623,0.643773,-0.044107,-0.750636,-0.141971
27689,,9.696871,1.551133,-1.242331,0.011561,0.018149,-0.013391,0.836670,0.320313,-0.457275,0.643769,-0.044110,-0.750643,-0.141953
27690,,9.688464,1.518956,-1.236357,0.006199,0.016434,-0.009624,0.836914,0.318115,-0.461426,0.643764,-0.044135,-0.750647,-0.141950
27691,,9.705399,1.586311,-1.243585,0.010562,0.020175,-0.012905,0.836914,0.318115,-0.457031,0.643767,-0.044141,-0.750647,-0.141935
27692,,9.679512,1.534267,-1.284934,0.007298,0.022613,-0.010541,0.841553,0.318115,-0.459229,0.643785,-0.044154,-0.750632,-0.141929
27693,,9.715526,1.559027,-1.306005,0.000153,0.019782,-0.012164,0.836670,0.320313,-0.461670,0.643785,-0.044197,-0.750625,-0.141951
27694,,9.675217,1.523961,-1.249264,0.004854,0.018790,-0.013659,0.836914,0.318115,-0.463623,0.643785,-0.044212,-0.750621,-0.141968
27695,,9.706701,1.536451,-1.238739,0.000989,0.017922,-0.014915,0.834473,0.322510,-0.466064,0.643776,-0.044243,-0.750621,-0.141995
27696,,9.679671,1.539409,-1.277559,0.007792,0.021086,-0.017812,0.839111,0.318115,-0.459229,0.643782,-0.044233,-0.750613,-0.142015
27697,,9.711132,1.552049,-1.267006,0.009561,0.017799,-0.015155,0.829834,0.320068,-0.463623,0.643774,-0.044236,-0.750620,-0.142011
27698,,9.688105,1.575420,-1.278441,0.011250,0.022884,-0.015188,0.834473,0.317871,-0.461426,0.643790,-0.044219,-0.750609,-0.142005
27699,,9.683646,1.564288,-1.244788,0.007548,0.017447,-0.016916,0.832275,0.317871,-0.465820,0.643780,-0.044222,-0.750616,-0.142014
27700,,9.688097,1.578295,-1.274946,0.010413,0.020342,-0.015176,0.839355,0.313721,-0.461426,0.643786,-0.044209,-0.750612,-0.142010
27701,,9.706079,1.591456,-1.284709,0.011004,0.019247,-0.014291,0.834717,0.315674,-0.465820,0.643785,-0.044209,-0.750615,-0.141998
27702,,9.679773,1.547543,-1.266918,0.007736,0.021684,-0.011932,0.834473,0.320313,-0.459473,0.643798,-0.044215,-0.750604,-0.141993
27703,,9.674187,1.590682,-1.230457,0.009417,0.022366,-0.014696,0.832275,0.317871,-0.463623,0.643808,-0.044216,-0.750596,-0.141989
27704,,9.693377,1.549313,-1.242601,0.011857,0.021789,-0.014312,0.830078,0.315674,-0.465820,0.643821,-0.044201,-0.750588,-0.141978
27705,,9.697921,1.563194,-1.272392,0.002702,0.023001,-0.014970,0.834473,0.320313,-0.463623,0.643832,-0.044223,-0.750574,-0.142000
27706,,9.679998,1.552713,-1.258845,-0.001837,0.019422,-0.013952,0.841553,0.315918,-0.461426,0.643832,-0.044255,-0.750564,-0.142038
27707,,9.663282,1.487689,-1.247944,0.006993,0.022943,-0.015088,0.834473,0.317871,-0.461426,0.643844,-0.044262,-0.750553,-0.142044
27708,,9.693537,1.554747,-1.234540,0.006740,0.019305,-0.014185,0.834473,0.320313,-0.463623,0.643846,-0.044267,-0.750549,-0.142052
27709,,9.707647,1.547303,-1.271756,0.009598,0.017799,-0.015172,0.839111,0.318115,-0.468018,0.643839,-0.044269,-0.750556,-0.142047
27710,,9.693504,1.557546,-1.231273,0.011282,0.018482,-0.017936,0.836914,0.315918,-0.463623,0.643835,-0.044250,-0.750559,-0.142054
27711,,9.689624,1.538415,-1.257030,0.017002,0.019874,-0.017181,0.841309,0.320313,-0.468018,0.643836,-0.044220,-0.750565,-0.142029
27712,,9.698000,1.572869,-1.259805,0.013054,0.019603,-0.012547,0.836914,0.315918,-0.459229,0.643841,-0.044215,-0.750564,-0.142012
27713,,9.707631,1.552808,-1.265148,0.017010,0.019874,-0.017185,0.839111,0.318115,-0.468018,0.643841,-0.044184,-0.750570,-0.141987
27714,,9.674937,1.597571,-1.269751,0.008440,0.019985,-0.016961,0.841553,0.315918,-0.461426,0.643844,-0.044174,-0.750566,-0.141999
27715,,9.648673,1.553787,-1.251775,0.004325,0.024281,-0.011863,0.836670,0.322510,-0.459473,0.643862,-0.044201,-0.750548,-0.142005
27716,,9.666748,1.566870,-1.260972,0.002312,0.023925,-0.013626,0.836914,0.318115,-0.463623,0.643881,-0.044223,-0.750525,-0.142032
27717,,9.704081,1.537539,-1.284037,-0.004995,0.025647,-0.014795,0.834473,0.322510,-0.468018,0.643900,-0.044268,-0.750497,-0.142083
27718,,9.686191,1.527180,-1.270094,-0.000283,0.024662,-0.016281,0.834473,0.320313,-0.459473,0.643918,-0.044289,-0.750471,-0.142129
27719,,9.662387,1.558797,-1.222020,-0.000538,0.021025,-0.015374,0.834473,0.322510,-0.461670,0.643920,-0.044321,-0.750461,-0.142164
27720,,9.709312,1.508537,-1.252271,0.005534,0.025454,-0.021420,0.836670,0.324707,-0.468262,0.643939,-0.044301,-0.750438,-0.142204
27721,,9.686196,1.532396,-1.263760,0.012166,0.016623,-0.020694,0.834473,0.320313,-0.465820,0.643924,-0.044275,-0.750452,-0.142207
27722,,9.688508,1.609601,-1.231966,0.007815,0.025043,-0.023298,0.838867,0.326904,-0.468262,0.643940,-0.044246,-0.750433,-0.142249
27723,,9.662197,1.566291,-1.213919,0.005612,0.021490,-0.015993,0.841553,0.318115,-0.465820,0.643944,-0.044256,-0.750425,-0.142263
27724,,9.675631,1.567044,-1.191420,0.006622,0.023871,-0.013752,0.841309,0.320313,-0.461426,0.643962,-0.044271,-0.750406,-0.142282
27725,,9.694575,1.572053,-1.259745,0.001330,0.025946,-0.013166,0.834473,0.320313,-0.463623,0.643984,-0.044302,-0.750381,-0.142304
27726,,9.676715,1.561485,-1.245702,0.000165,0.028132,-0.014951,0.839111,0.318115,-0.461426,0.644017,-0.044324,-0.750344,-0.142345
27727,,9.658803,1.551151,-1.231757,0.002022,0.024248,-0.018176,0.829834,0.320068,-0.468018,0.644030,-0.044335,-0.750325,-0.142380
27728,,9.678240,1.510272,-1.243173,0.001863,0.028815,-0.017719,0.836914,0.315918,-0.457031,0.644064,-0.044337,-0.750289,-0.142420
27729,,9.740974,1.534741,-1.222655,0.006159,0.024360,-0.020550,0.839111,0.318115,-0.468018,0.644076,-0.044325,-0.750273,-0.142447
27730,,9.703546,1.567414,-1.195029,0.004151,0.024001,-0.022317,0.836914,0.318115,-0.470215,0.644090,-0.044305,-0.750254,-0.142491
27731,,9.677768,1.562448,-1.292842,0.008020,0.024881,-0.021054,0.841553,0.318115,-0.461426,0.644104,-0.044286,-0.750239,-0.142513
27732,,9.708112,1.583793,-1.222324,0.006331,0.024197,-0.018294,0.834473,0.320313,-0.463623,0.644121,-0.044278,-0.750220,-0.142540
27733,,9.686513,1.552751,-1.236177,0.007501,0.022012,-0.016511,0.836670,0.320313,-0.461670,0.644128,-0.044279,-0.750212,-0.142549
27734,,9.663475,1.576138,-1.247494,0.004061,0.024605,-0.016430,0.834717,0.313477,-0.465576,0.644147,-0.044283,-0.750190,-0.142577
27735,,9.676877,1.577011,-1.224712,-0.000067,0.024491,-0.014065,0.834473,0.318115,-0.463623,0.644163,-0.044316,-0.750169,-0.142607
27736,,9.719436,1.514213,-1.222944,0.009634,0.021767,-0.020649,0.839355,0.315918,-0.465820,0.644171,-0.044283,-0.750161,-0.142620
27737,,9.704622,1.570975,-1.238677,0.007352,0.026580,-0.016062,0.836914,0.315918,-0.463623,0.644196,-0.044282,-0.750139,-0.142629
27738,,9.714384,1.551299,-1.243483,0.006518,0.019629,-0.018763,0.839355,0.315918,-0.465820,0.644196,-0.044271,-0.750135,-0.142651
27739,,9.686625,1.562286,-1.223217,0.013084,0.023580,-0.018016,0.834473,0.320313,-0.468018,0.644209,-0.044247,-0.750127,-0.142644
27740,,9.704620,1.575804,-1.232541,0.009380,0.022535,-0.017023,0.839111,0.318115,-0.463623,0.644221,-0.044234,-0.750115,-0.142653
27741,,9.668247,1.599682,-1.264528,0.003822,0.020966,-0.015532,0.836914,0.318115,-0.461426,0.644224,-0.044251,-0.750108,-0.142672
27742,,9.669833,1.546605,-1.264928,0.002816,0.022988,-0.015058,0.839111,0.318115,-0.468018,0.644238,-0.044265,-0.750090,-0.142699
27743,,9.676973,1.589321,-1.207926,0.004400,0.024280,-0.011922,0.832275,0.315674,-0.468018,0.644256,-0.044291,-0.750072,-0.142705
27744,,9.687986,1.561235,-1.271780,0.000233,0.023717,-0.017725,0.834473,0.318115,-0.463623,0.644270,-0.044302,-0.750051,-0.142749
27745,,9.681747,1.604737,-1.235334,0.007697,0.021851,-0.014267,0.832275,0.317871,-0.463623,0.644278,-0.044311,-0.750043,-0.142749
27746,,9.686907,1.572227,-1.208155,-0.006608,0.024936,-0.012129,0.843750,0.318115,-0.457031,0.644300,-0.044361,-0.750012,-0.142798
27747,,9.696778,1.552388,-1.212586,-0.006329,0.024167,-0.015767,0.839111,0.320313,-0.465820,0.644313,-0.044407,-0.749987,-0.142857
27748,,9.712914,1.490729,-1.251613,-0.001872,0.019556,-0.016318,0.834473,0.317871,-0.461426,0.644312,-0.044438,-0.749977,-0.142908
27749,,9.711316,1.546729,-1.247249,0.004428,0.019876,-0.014647,0.834473,0.322510,-0.463867,0.644311,-0.044458,-0.749973,-0.142922
27750,,9.686995,1.578089,-1.199784,0.008721,0.019832,-0.014745,0.836670,0.322510,-0.459473,0.644315,-0.044456,-0.749970,-0.142924
27751,,9.688278,1.571212,-1.257185,0.004433,0.019875,-0.014651,0.837158,0.313721,-0.461426,0.644315,-0.044475,-0.749966,-0.142937
27752,,9.663930,1.602575,-1.209714,0.002580,0.019351,-0.014156,0.834473,0.322510,-0.466064,0.644316,-0.044494,-0.749960,-0.142959
27753,,9.684950,1.553027,-1.280552,-0.004586,0.025295,-0.010377,0.836670,0.320313,-0.461670,0.644337,-0.044554,-0.749931,-0.142994
27754,,9.675236,1.575436,-1.271421,0.004012,0.020806,-0.013285,0.838867,0.322510,-0.463867,0.644344,-0.044576,-0.749921,-0.143012
27755,,9.721463,1.533106,-1.242123,-0.003141,0.022343,-0.012224,0.834473,0.317871,-0.459229,0.644353,-0.044627,-0.749904,-0.143047
27756,,9.699822,1.547877,-1.312759,0.003008,0.022827,-0.012815,0.836914,0.318115,-0.457031,0.644368,-0.044650,-0.749886,-0.143066
27757,,9.688722,1.578703,-1.244314,0.001273,0.026099,-0.015508,0.836914,0.318115,-0.455078,0.644389,-0.044672,-0.749860,-0.143096
27758,,9.654196,1.547970,-1.278258,-0.004023,0.028160,-0.014946,0.839111,0.320313,-0.465820,0.644423,-0.044701,-0.749821,-0.143145
27759,,9.684172,1.569099,-1.207014,-0.006305,0.028565,-0.013084,0.834473,0.320313,-0.465820,0.644453,-0.044755,-0.749781,-0.143196
27760,,9.672475,1.562937,-1.283888,-0.010308,0.027836,-0.016632,0.832031,0.322266,-0.459473,0.644481,-0.044804,-0.749739,-0.143280
27761,,9.725452,1.562425,-1.199048,-0.015146,0.025008,-0.011986,0.832031,0.324463,-0.463867,0.644497,-0.044893,-0.749704,-0.143359
27762,,9.707334,1.597985,-1.241577,-0.007734,0.031515,-0.011249,0.836914,0.315918,-0.459229,0.644543,-0.044951,-0.749651,-0.143416
27763,,9.689745,1.540854,-1.170723,-0.010269,0.023877,-0.011184,0.836670,0.320313,-0.461670,0.644556,-0.045028,-0.749623,-0.143474
27764,,9.666796,1.563793,-1.181821,-0.005129,0.026384,-0.011297,0.836670,0.322510,-0.455078,0.644585,-0.045077,-0.749588,-0.143516
27765,,9.691499,1.534945,-1.224834,0.001597,0.025781,-0.010982,0.836914,0.318115,-0.459229,0.644608,-0.045115,-0.749563,-0.143530
27766,,9.699747,1.569418,-1.226803,0.000032,0.024486,-0.014128,0.836670,0.320313,-0.457275,0.644628,-0.045140,-0.749537,-0.143563
27767,,9.699843,1.570793,-1.224287,-0.005264,0.026544,-0.013573,0.839111,0.322510,-0.466064,0.644651,-0.045190,-0.749505,-0.143611
27768,,9.696714,1.551140,-1.249051,-0.001115,0.027113,-0.007757,0.834473,0.318115,-0.465820,0.644685,-0.045245,-0.749469,-0.143632
27769,,9.698382,1.627322,-1.216774,-0.002518,0.021252,-0.011350,0.839111,0.320313,-0.463623,0.644690,-0.045298,-0.749456,-0.143662
27770,,9.677230,1.595671,-1.230348,-0.015131,0.029406,-0.009303,0.837158,0.311523,-0.458984,0.644728,-0.045387,-0.749403,-0.143737
27771,,9.672680,1.500708,-1.284861,-0.008676,0.025168,-0.008061,0.839111,0.320313,-0.457275,0.644749,-0.045469,-0.749372,-0.143780
27772,,9.718689,1.587842,-1.222500,-0.000670,0.026184,-0.009130,0.836670,0.320313,-0.459473,0.644780,-0.045509,-0.749340,-0.143795
27773,,9.718866,1.588700,-1.219977,-0.006237,0.024604,-0.007658,0.839355,0.315918,-0.457031,0.644800,-0.045586,-0.749312,-0.143827
27774,,9.651830,1.553918,-1.204227,-0.009675,0.027187,-0.007599,0.836914,0.315918,-0.459229,0.644833,-0.045663,-0.749270,-0.143874
27775,,9.665165,1.554190,-1.181092,-0.005656,0.023513,-0.006761,0.836670,0.320313,-0.465820,0.644849,-0.045742,-0.749246,-0.143901
27776,,9.683372,1.566908,-1.189989,-0.013081,0.021405,-0.004800,0.839111,0.318115,-0.461426,0.644862,-0.045845,-0.749220,-0.143951
27777,,9.711501,1.558356,-1.205796,-0.005076,0.022423,-0.005863,0.839111,0.318115,-0.457031,0.644875,-0.045926,-0.749199,-0.143972
27778,,9.734700,1.537254,-1.190058,-0.006771,0.017330,-0.005820,0.843750,0.318115,-0.457031,0.644873,-0.046009,-0.749190,-0.144001
27779,,9.703685,1.526239,-1.197561,0.000365,0.020205,-0.004144,0.839111,0.320313,-0.457275,0.644880,-0.046081,-0.749181,-0.143997
27780,,9.677589,1.527795,-1.236879,0.009238,0.019367,-0.007941,0.836914,0.315918,-0.457031,0.644887,-0.046106,-0.749176,-0.143977
27781,,9.680879,1.549202,-1.207778,0.005960,0.017383,-0.008331,0.839111,0.318115,-0.455078,0.644882,-0.046146,-0.749181,-0.143964
27782,,9.677777,1.529352,-1.233477,0.010387,0.021147,-0.011603,0.834473,0.320313,-0.461670,0.644895,-0.046146,-0.749173,-0.143945
27783,,9.649883,1.539549,-1.213508,0.007958,0.021709,-0.012016,0.834473,0.320313,-0.459473,0.644904,-0.046163,-0.749166,-0.143937
27784,,9.681107,1.552203,-1.202083,0.005530,0.022272,-0.012429,0.834473,0.320313,-0.463623,0.644918,-0.046177,-0.749152,-0.143942
27785,,9.696086,1.544696,-1.238480,0.002093,0.024854,-0.012376,0.836914,0.315918,-0.459229,0.644937,-0.046209,-0.749131,-0.143958
27786,,9.719183,1.524383,-1.222556,0.000121,0.020083,-0.016870,0.839111,0.318115,-0.465820,0.644939,-0.046224,-0.749121,-0.143995
27787,,9.737262,1.537979,-1.231544,0.003820,0.025543,-0.015139,0.841553,0.318115,-0.465820,0.644959,-0.046239,-0.749099,-0.144014
27788,,9.726084,1.485457,-1.252518,0.008707,0.020015,-0.017027,0.834717,0.315674,-0.448486,0.644961,-0.046231,-0.749096,-0.144025
27789,,9.678124,1.538732,-1.219008,0.014150,0.021761,-0.020766,0.841553,0.315918,-0.454834,0.644966,-0.046195,-0.749095,-0.144022
27790,,9.668112,1.561793,-1.210171,0.016864,0.024836,-0.021281,0.839355,0.315918,-0.463623,0.644987,-0.046134,-0.749082,-0.144009
27791,,9.654978,1.564246,-1.228731,0.009734,0.021954,-0.022966,0.832275,0.320068,-0.461670,0.644990,-0.046103,-0.749078,-0.144030
27792,,9.621896,1.563009,-1.176793,0.007585,0.026151,-0.024310,0.839111,0.320313,-0.459473,0.645011,-0.046062,-0.749056,-0.144064
27793,,9.709004,1.558544,-1.200941,0.004444,0.024004,-0.022433,0.834717,0.315674,-0.459229,0.645020,-0.046049,-0.749041,-0.144104
27794,,9.728967,1.518244,-1.212053,0.006149,0.029099,-0.022485,0.836914,0.318115,-0.465820,0.645053,-0.046018,-0.749008,-0.144138
27795,,9.702811,1.521503,-1.250800,0.012198,0.025352,-0.028031,0.834473,0.320313,-0.457275,0.645065,-0.045958,-0.748996,-0.144167
27796,,9.697686,1.511617,-1.216773,0.016363,0.025483,-0.030378,0.836914,0.318115,-0.457031,0.645081,-0.045867,-0.748984,-0.144189
27797,,9.679477,1.502307,-1.203477,0.013089,0.023494,-0.030773,0.834473,0.322510,-0.455078,0.645084,-0.045796,-0.748979,-0.144223
27798,,9.669234,1.526575,-1.194577,0.016554,0.024874,-0.036297,0.834473,0.322510,-0.455078,0.645093,-0.045684,-0.748970,-0.144264
27799,,9.662943,1.488584,-1.247357,0.025325,0.024208,-0.042357,0.836670,0.320313,-0.459473,0.645094,-0.045529,-0.748974,-0.144290
27800,,9.720651,1.624398,-1.221768,0.029172,0.021154,-0.035595,0.836670,0.320313,-0.459473,0.645092,-0.045383,-0.748986,-0.144281
27801,,9.758500,1.597315,-1.244597,0.020875,0.024843,-0.036390,0.838867,0.326904,-0.459717,0.645098,-0.045264,-0.748983,-0.144305
27802,,9.709143,1.576651,-1.241022,0.018304,0.021604,-0.033608,0.836426,0.326904,-0.459717,0.645096,-0.045166,-0.748985,-0.144336
27803,,9.672847,1.555414,-1.216735,0.016287,0.025638,-0.032691,0.838867,0.322510,-0.459473,0.645107,-0.045076,-0.748975,-0.144365
27804,,9.662549,1.579663,-1.207770,0.014305,0.025265,-0.034480,0.841309,0.320313,-0.461426,0.645117,-0.044986,-0.748963,-0.144416
27805,,9.657296,1.570269,-1.173707,0.015733,0.026726,-0.033607,0.836670,0.322510,-0.459473,0.645131,-0.044893,-0.748949,-0.144450
27806,,9.662080,1.585921,-1.203305,0.019061,0.024312,-0.035927,0.836670,0.322510,-0.457275,0.645138,-0.044779,-0.748944,-0.144484
27807,,9.710849,1.613083,-1.202839,0.019071,0.024312,-0.035933,0.839111,0.320313,-0.463623,0.645142,-0.044668,-0.748941,-0.144513
27808,,9.707716,1.595306,-1.228283,0.012324,0.020936,-0.030804,0.834229,0.324707,-0.459473,0.645139,-0.044596,-0.748940,-0.144553
27809,,9.679372,1.607140,-1.208301,0.019173,0.028563,-0.030965,0.839111,0.320313,-0.463623,0.645162,-0.044500,-0.748923,-0.144566
27810,,9.676350,1.589050,-1.233482,0.013758,0.022397,-0.029935,0.841309,0.322510,-0.459473,0.645165,-0.044426,-0.748919,-0.144599
27811,,9.717324,1.582269,-1.228617,0.015307,0.023703,-0.026787,0.838867,0.324707,-0.457275,0.645172,-0.044362,-0.748914,-0.144612
27812,,9.686183,1.572972,-1.236107,0.017053,0.024394,-0.029553,0.838867,0.322510,-0.459473,0.645184,-0.044282,-0.748904,-0.144637
27813,,9.668501,1.638872,-1.193180,0.010330,0.024964,-0.029910,0.834229,0.324707,-0.457275,0.645192,-0.044222,-0.748892,-0.144678
27814,,9.624399,1.583998,-1.164409,0.011353,0.022948,-0.030372,0.836670,0.322510,-0.455078,0.645197,-0.044155,-0.748884,-0.144723
27815,,9.660240,1.611098,-1.184492,0.008480,0.024429,-0.029431,0.838867,0.324707,-0.461670,0.645203,-0.044102,-0.748872,-0.144770
27816,,9.706311,1.616721,-1.211263,0.011731,0.022480,-0.023553,0.841064,0.329102,-0.461914,0.645211,-0.044061,-0.748864,-0.144792
27817,,9.719144,1.618647,-1.188493,0.014897,0.024635,-0.025442,0.843506,0.322510,-0.455078,0.645223,-0.044003,-0.748855,-0.144802
27818,,9.675166,1.609063,-1.216710,0.007685,0.022183,-0.018943,0.836670,0.324707,-0.463867,0.645230,-0.043999,-0.748843,-0.144832
27819,,9.662162,1.611270,-1.235421,0.009882,0.021944,-0.023075,0.843750,0.320313,-0.463623,0.645233,-0.043968,-0.748839,-0.144853
27820,,9.649522,1.642739,-1.167636,0.003962,0.021112,-0.017974,0.829834,0.322266,-0.457275,0.645237,-0.043974,-0.748828,-0.144886
27821,,9.633885,1.623598,-1.213638,0.005052,0.023352,-0.013456,0.838867,0.322510,-0.459473,0.645250,-0.043993,-0.748814,-0.144894
27822,,9.739401,1.630898,-1.248391,0.005174,0.023197,-0.011181,0.836670,0.320313,-0.457275,0.645269,-0.044012,-0.748797,-0.144895
27823,,9.783364,1.643583,-1.215823,-0.009016,0.021616,-0.009595,0.841309,0.320313,-0.461426,0.645275,-0.044093,-0.748777,-0.144943
27824,,9.680164,1.554671,-1.265549,0.001898,0.021196,-0.011575,0.832031,0.322266,-0.461670,0.645285,-0.044124,-0.748764,-0.144958
27825,,9.649579,1.573116,-1.186575,0.007048,0.023733,-0.011671,0.836670,0.322510,-0.466064,0.645302,-0.044144,-0.748749,-0.144953
27826,,9.670408,1.607035,-1.168065,-0.005043,0.022376,-0.006023,0.834473,0.317871,-0.461426,0.645318,-0.044216,-0.748727,-0.144975
27827,,9.675227,1.469532,-1.256875,0.005755,0.022113,-0.010275,0.836670,0.322510,-0.457275,0.645329,-0.044246,-0.748716,-0.144970
27828,,9.716921,1.611985,-1.192649,0.011923,0.022636,-0.010825,0.838867,0.326904,-0.455322,0.645348,-0.044243,-0.748706,-0.144942
27829,,9.719441,1.558483,-1.193001,0.013393,0.019692,-0.012645,0.836670,0.320313,-0.457275,0.645350,-0.044241,-0.748709,-0.144916
27830,,9.678331,1.568763,-1.194236,0.024144,0.023840,-0.014199,0.834473,0.322510,-0.452881,0.645372,-0.044193,-0.748704,-0.144861
27831,,9.665497,1.570228,-1.213004,0.019735,0.024006,-0.016419,0.841309,0.322510,-0.459473,0.645389,-0.044153,-0.748698,-0.144824
27832,,9.688581,1.550448,-1.197173,0.020694,0.017735,-0.021847,0.839111,0.318115,-0.459229,0.645383,-0.044091,-0.748712,-0.144803
27833,,9.685908,1.531342,-1.222713,0.024665,0.026855,-0.021074,0.832275,0.320068,-0.457275,0.645408,-0.044016,-0.748702,-0.144764
27834,,9.678071,1.500065,-1.216275,0.036835,0.023804,-0.029420,0.836670,0.322510,-0.457275,0.645423,-0.043861,-0.748710,-0.144701
27835,,9.716541,1.547882,-1.209325,0.039168,0.023410,-0.031278,0.838867,0.324707,-0.459473,0.645432,-0.043704,-0.748724,-0.144639
27836,,9.718891,1.571530,-1.180299,0.042805,0.024637,-0.034537,0.838867,0.326904,-0.457520,0.645446,-0.043520,-0.748734,-0.144580
27837,,9.708365,1.641599,-1.229121,0.031382,0.021717,-0.036182,0.836670,0.324707,-0.457275,0.645442,-0.043370,-0.748749,-0.144563
27838,,9.741523,1.526757,-1.249432,0.029240,0.017545,-0.034751,0.834229,0.326904,-0.461914,0.645426,-0.043238,-0.748771,-0.144557
27839,,9.728309,1.605308,-1.239581,0.031231,0.017931,-0.032965,0.832031,0.324463,-0.461670,0.645411,-0.043104,-0.748798,-0.144529
27840,,9.661074,1.571853,-1.225920,0.022975,0.017163,-0.036495,0.834229,0.324707,-0.455322,0.645391,-0.042980,-0.748819,-0.144547
27841,,9.676220,1.566208,-1.263120,0.028420,0.014993,-0.034730,0.834229,0.324707,-0.463867,0.645363,-0.042850,-0.748853,-0.144535
27842,,9.698867,1.623458,-1.218561,0.032171,0.016070,-0.035710,0.836426,0.326904,-0.455322,0.645341,-0.042700,-0.748884,-0.144516
27843,,9.685509,1.701770,-1.209117,0.033076,0.014537,-0.027962,0.836670,0.324707,-0.455322,0.645317,-0.042581,-0.748921,-0.144464
27844,,9.636415,1.679594,-1.206716,0.023100,0.017339,-0.023758,0.836670,0.324707,-0.459473,0.645307,-0.042509,-0.748937,-0.144445
27845,,9.646589,1.660295,-1.212136,0.019189,0.012477,-0.019550,0.836426,0.326904,-0.459717,0.645279,-0.042468,-0.748970,-0.144417
27846,,9.677317,1.673694,-1.201479,0.012882,0.012424,-0.010803,0.836670,0.322510,-0.457275,0.645257,-0.042480,-0.748992,-0.144393
27847,,9.700520,1.698943,-1.243356,0.008792,0.012128,-0.006185,0.838867,0.322510,-0.455078,0.645235,-0.042523,-0.749015,-0.144362
27848,,9.695447,1.686806,-1.210327,-0.008572,0.012621,0.002251,0.838867,0.326904,-0.457520,0.645220,-0.042649,-0.749019,-0.144372
27849,,9.677936,1.598671,-1.227194,-0.007790,0.011242,0.007727,0.836670,0.320313,-0.459473,0.645200,-0.042798,-0.749030,-0.144358
27850,,9.698693,1.631054,-1.209767,-0.007573,0.010943,0.012286,0.834229,0.326904,-0.459717,0.645186,-0.042963,-0.749037,-0.144334
27851,,9.704215,1.642434,-1.240354,-0.010116,0.011634,0.009575,0.838867,0.322510,-0.459473,0.645169,-0.043126,-0.749045,-0.144322
27852,,9.712372,1.553648,-1.215692,-0.021906,0.009480,0.011579,0.834229,0.326904,-0.457520,0.645145,-0.043335,-0.749047,-0.144354
27853,,9.715404,1.544172,-1.273734,-0.008069,0.007607,0.008681,0.839111,0.320313,-0.463623,0.645113,-0.043491,-0.749069,-0.144337
27854,,9.689699,1.573301,-1.228111,-0.007504,0.006526,0.009598,0.834229,0.324707,-0.459473,0.645080,-0.043648,-0.749092,-0.144320
27855,,9.692408,1.593397,-1.199918,-0.008981,0.009471,0.011406,0.834473,0.322510,-0.459473,0.645056,-0.043815,-0.749107,-0.144297
27856,,9.677392,1.571765,-1.247131,-0.007154,0.005744,0.005954,0.841064,0.324707,-0.455322,0.645018,-0.043956,-0.749133,-0.144288
27857,,9.695497,1.537620,-1.200299,-0.005738,0.007214,0.006830,0.834473,0.322510,-0.463867,0.644983,-0.044098,-0.749159,-0.144268
27858,,9.731749,1.561332,-1.221739,0.004003,0.005043,0.008552,0.836670,0.322510,-0.459473,0.644946,-0.044216,-0.749195,-0.144213
27859,,9.672714,1.557558,-1.213332,-0.000232,0.008982,0.003092,0.838867,0.322510,-0.463867,0.644916,-0.044325,-0.749219,-0.144184
27860,,9.683207,1.536155,-1.219052,0.002660,0.007507,0.002160,0.834473,0.322510,-0.468018,0.644884,-0.044421,-0.749247,-0.144153
27861,,9.690980,1.569372,-1.223021,0.007880,0.005639,-0.000621,0.839111,0.320313,-0.468018,0.644841,-0.044492,-0.749289,-0.144106
27862,,9.665324,1.523854,-1.206928,-0.001297,0.006730,-0.001427,0.838867,0.322510,-0.461670,0.644801,-0.044584,-0.749319,-0.144098
27863,,9.654979,1.545344,-1.199907,0.009993,0.005546,-0.007028,0.839111,0.318115,-0.457031,0.644754,-0.044624,-0.749364,-0.144063
27864,,9.662665,1.579058,-1.203921,0.006753,0.007803,-0.002455,0.836670,0.322510,-0.457275,0.644721,-0.044688,-0.749396,-0.144030
27865,,9.711775,1.528521,-1.233553,0.006612,0.012037,-0.012530,0.838867,0.324707,-0.466064,0.644693,-0.044714,-0.749419,-0.144027
27866,,9.722062,1.508385,-1.239386,0.014653,0.004761,-0.010726,0.838867,0.322510,-0.463867,0.644642,-0.044728,-0.749467,-0.143995
27867,,9.719247,1.564028,-1.236975,0.010421,0.008698,-0.016189,0.832275,0.320068,-0.463623,0.644600,-0.044730,-0.749504,-0.143989
27868,,9.682988,1.541235,-1.214368,0.007487,0.005905,-0.020223,0.834473,0.317871,-0.457031,0.644547,-0.044724,-0.749547,-0.144008
27869,,9.711443,1.458854,-1.260552,0.016744,0.008751,-0.024935,0.836914,0.318115,-0.463623,0.644500,-0.044674,-0.749591,-0.144007
27870,,9.736518,1.582135,-1.246500,0.024514,0.006193,-0.025006,0.832031,0.324463,-0.468262,0.644449,-0.044590,-0.749646,-0.143972
27871,,9.682248,1.593447,-1.270139,0.019934,0.010910,-0.026831,0.834473,0.320313,-0.461670,0.644410,-0.044520,-0.749685,-0.143965
27872,,9.663937,1.583497,-1.258435,0.010576,0.008211,-0.024402,0.836670,0.322510,-0.461670,0.644362,-0.044486,-0.749724,-0.143987
27873,,9.678951,1.652441,-1.266571,0.005075,0.014790,-0.023503,0.836914,0.318115,-0.463623,0.644337,-0.044474,-0.749739,-0.144025
27874,,9.647814,1.596834,-1.218053,0.001401,0.009292,-0.025215,0.843506,0.322510,-0.461670,0.644291,-0.044467,-0.749768,-0.144084
27875,,9.665576,1.611431,-1.228018,-0.006260,0.011696,-0.022870,0.836670,0.320313,-0.461670,0.644252,-0.044496,-0.749785,-0.144162
27876,,9.637364,1.547108,-1.238531,-0.005798,0.010764,-0.024234,0.836914,0.318115,-0.459229,0.644210,-0.044520,-0.749802,-0.144251
27877,,9.721879,1.552641,-1.203442,0.006109,0.012781,-0.023953,0.834473,0.320313,-0.457275,0.644177,-0.044504,-0.749825,-0.144287
27878,,9.724561,1.546202,-1.261465,0.010882,0.011851,-0.025371,0.841309,0.322510,-0.463867,0.644144,-0.044461,-0.749851,-0.144308
27879,,9.703469,1.590725,-1.247490,0.007989,0.013321,-0.024443,0.841309,0.324707,-0.468262,0.644113,-0.044437,-0.749874,-0.144338
27880,,9.693325,1.538809,-1.268976,0.003479,0.013615,-0.028956,0.829590,0.328857,-0.468506,0.644080,-0.044415,-0.749889,-0.144412
27881,,9.700596,1.574951,-1.272399,0.010690,0.012148,-0.029941,0.836670,0.322510,-0.461670,0.644040,-0.044363,-0.749919,-0.144449
27882,,9.680026,1.544275,-1.287387,-0.001746,0.015473,-0.026184,0.834229,0.326904,-0.461914,0.644015,-0.044362,-0.749925,-0.144529
27883,,9.690230,1.526113,-1.292230,0.005450,0.018086,-0.034977,0.832275,0.315674,-0.463623,0.643994,-0.044303,-0.749933,-0.144604
27884,,9.710204,1.562738,-1.274366,0.014076,0.018097,-0.035085,0.838623,0.329102,-0.461914,0.643977,-0.044208,-0.749945,-0.144645
27885,,9.675488,1.637995,-1.194199,-0.000335,0.021022,-0.033129,0.831787,0.329102,-0.464111,0.643966,-0.044173,-0.749938,-0.144736
27886,,9.681167,1.577975,-1.253233,0.006881,0.019561,-0.034112,0.836670,0.320313,-0.465820,0.643952,-0.044119,-0.749939,-0.144818
27887,,9.680134,1.656609,-1.222376,0.011297,0.019421,-0.031884,0.836670,0.324707,-0.461670,0.643938,-0.044052,-0.749945,-0.144861
27888,,9.649155,1.647223,-1.230305,0.001192,0.022346,-0.029982,0.829590,0.328857,-0.466309,0.643938,-0.044020,-0.749932,-0.144940
27889,,9.677440,1.641215,-1.245719,0.006633,0.020197,-0.028194,0.838867,0.326904,-0.472656,0.643929,-0.043981,-0.749933,-0.144989
27890,,9.669820,1.610285,-1.239020,-0.000093,0.024993,-0.023618,0.829590,0.324463,-0.457520,0.643941,-0.043980,-0.749909,-0.145059
27891,,9.690747,1.570366,-1.249856,0.004116,0.016804,-0.023102,0.838867,0.324707,-0.463867,0.643923,-0.043971,-0.749917,-0.145100
27892,,9.687560,1.626962,-1.246282,0.004502,0.020290,-0.021786,0.836426,0.329102,-0.461914,0.643921,-0.043961,-0.749911,-0.145141
27893,,9.669468,1.616675,-1.233430,0.002631,0.019745,-0.021303,0.834473,0.322510,-0.463867,0.643915,-0.043962,-0.749908,-0.145182
27894,,9.710632,1.609807,-1.228043,0.002264,0.020530,-0.017658,0.836670,0.322510,-0.459473,0.643916,-0.043977,-0.749899,-0.145221
27895,,9.661889,1.586978,-1.225051,0.002639,0.019745,-0.021307,0.836670,0.324707,-0.461670,0.643910,-0.043978,-0.749896,-0.145263
27896,,9.679799,1.601233,-1.234154,0.002737,0.019598,-0.019025,0.836670,0.322510,-0.470215,0.643908,-0.043985,-0.749890,-0.145301
27897,,9.706115,1.573500,-1.276837,0.001991,0.020971,-0.024519,0.838867,0.322510,-0.463867,0.643904,-0.043974,-0.749884,-0.145356
27898,,9.688009,1.563338,-1.264081,0.007989,0.017749,-0.021800,0.834229,0.326904,-0.466064,0.643893,-0.043953,-0.749889,-0.145381
27899,,9.702745,1.632262,-1.271383,0.007718,0.022461,-0.023693,0.832031,0.322266,-0.466064,0.643897,-0.043926,-0.749882,-0.145412
27900,,9.679362,1.609696,-1.226550,0.001629,0.021754,-0.020880,0.836426,0.326904,-0.463867,0.643901,-0.043924,-0.749870,-0.145458
27901,,9.718408,1.582069,-1.248280,0.002569,0.019891,-0.023607,0.832031,0.324463,-0.466064,0.643893,-0.043916,-0.749867,-0.145507
27902,,9.710968,1.596611,-1.298816,-0.001920,0.024441,-0.023171,0.836426,0.326904,-0.461914,0.643904,-0.043919,-0.749844,-0.145577
27903,,9.692854,1.540931,-1.228242,0.004181,0.025150,-0.025988,0.832275,0.320068,-0.457275,0.643915,-0.043892,-0.749826,-0.145630
27904,,9.684200,1.585562,-1.192349,0.005215,0.023141,-0.026430,0.838867,0.326904,-0.457520,0.643922,-0.043858,-0.749812,-0.145680
27905,,9.703289,1.570618,-1.287353,0.008413,0.025314,-0.028324,0.836670,0.322510,-0.459473,0.643933,-0.043809,-0.749797,-0.145724
27906,,9.673315,1.657643,-1.238758,0.013112,0.024547,-0.032020,0.836670,0.324707,-0.461670,0.643942,-0.043733,-0.749785,-0.145768
27907,,9.660533,1.660220,-1.257209,0.006457,0.029184,-0.025171,0.834229,0.326904,-0.466064,0.643969,-0.043700,-0.749756,-0.145810
27908,,9.671082,1.641552,-1.261063,-0.001420,0.023504,-0.024557,0.834473,0.320313,-0.459473,0.643976,-0.043697,-0.749736,-0.145883
27909,,9.690916,1.631579,-1.185153,-0.005551,0.023192,-0.019945,0.834229,0.324707,-0.459473,0.643981,-0.043726,-0.749716,-0.145952
27910,,9.686901,1.591372,-1.237304,-0.003670,0.023741,-0.020431,0.831787,0.328857,-0.455322,0.643993,-0.043739,-0.749693,-0.146013
27911,,9.715469,1.584732,-1.252492,0.005142,0.019216,-0.020905,0.838867,0.322510,-0.463867,0.643986,-0.043734,-0.749694,-0.146044
27912,,9.686773,1.595272,-1.233278,0.007398,0.023253,-0.020074,0.836670,0.322510,-0.459473,0.643998,-0.043719,-0.749680,-0.146069
27913,,9.684788,1.575986,-1.258425,0.011714,0.023274,-0.020117,0.838867,0.324707,-0.466064,0.644007,-0.043692,-0.749672,-0.146074
27914,,9.704701,1.611383,-1.239799,0.007695,0.026886,-0.021052,0.838867,0.326904,-0.468262,0.644032,-0.043669,-0.749647,-0.146100
27915,,9.672244,1.625423,-1.332017,0.007326,0.023398,-0.022370,0.834229,0.324707,-0.461670,0.644040,-0.043647,-0.749636,-0.146128
27916,,9.679433,1.615248,-1.276945,0.005270,0.027414,-0.021502,0.834229,0.326904,-0.461914,0.644065,-0.043631,-0.749608,-0.146167
27917,,9.688215,1.575181,-1.307869,-0.001473,0.027918,-0.021912,0.832031,0.326660,-0.459717,0.644088,-0.043637,-0.749576,-0.146227
27918,,9.679435,1.619487,-1.271549,0.002288,0.029018,-0.022879,0.838867,0.326904,-0.459717,0.644118,-0.043623,-0.749541,-0.146281
27919,,9.665193,1.651477,-1.203552,-0.002309,0.025359,-0.021872,0.834473,0.322510,-0.461670,0.644131,-0.043633,-0.749517,-0.146344
27920,,9.661431,1.611364,-1.255322,-0.000610,0.030475,-0.021969,0.832031,0.326660,-0.463867,0.644167,-0.043630,-0.749474,-0.146405
27921,,9.702720,1.604982,-1.248671,-0.000047,0.029399,-0.021046,0.843750,0.320313,-0.461426,0.644196,-0.043633,-0.749438,-0.146458
27922,,9.693862,1.649065,-1.212489,0.000224,0.024688,-0.019146,0.838867,0.326904,-0.461670,0.644213,-0.043641,-0.749415,-0.146503
27923,,9.672240,1.596315,-1.253277,0.001658,0.034515,-0.021147,0.836670,0.324707,-0.461670,0.644262,-0.043634,-0.749364,-0.146551
27924,,9.674106,1.619438,-1.223113,0.001557,0.026315,-0.020561,0.836670,0.324707,-0.463867,0.644283,-0.043635,-0.749336,-0.146601
27925,,9.648853,1.575596,-1.205115,0.006642,0.029045,-0.022934,0.838867,0.324707,-0.459473,0.644311,-0.043610,-0.749306,-0.146635
27926,,9.701026,1.593838,-1.262190,0.006728,0.028900,-0.020648,0.834229,0.324707,-0.459473,0.644343,-0.043589,-0.749274,-0.146663
27927,,9.690276,1.617110,-1.253038,0.011103,0.032998,-0.028529,0.834229,0.326904,-0.457520,0.644383,-0.043526,-0.749236,-0.146699
27928,,9.695678,1.631954,-1.282051,0.019446,0.029420,-0.027620,0.836426,0.326904,-0.457520,0.644415,-0.043437,-0.749214,-0.146701
27929,,9.670376,1.588669,-1.264018,0.008314,0.030031,-0.030302,0.836670,0.324707,-0.461670,0.644442,-0.043378,-0.749184,-0.146753
27930,,9.666517,1.600281,-1.202402,0.016103,0.027531,-0.030319,0.838623,0.329102,-0.466309,0.644464,-0.043293,-0.749165,-0.146778
27931,,9.648574,1.636148,-1.246385,0.025035,0.031226,-0.031363,0.836426,0.326904,-0.466064,0.644498,-0.043175,-0.749144,-0.146771
27932,,9.691450,1.651507,-1.212720,0.015719,0.028316,-0.026680,0.832031,0.326660,-0.459717,0.644524,-0.043106,-0.749122,-0.146788
27933,,9.705554,1.675215,-1.161937,0.012813,0.029769,-0.025774,0.834473,0.322510,-0.463867,0.644554,-0.043050,-0.749095,-0.146808
27934,,9.686003,1.689329,-1.233205,0.010720,0.025437,-0.022027,0.834229,0.326904,-0.466064,0.644574,-0.043007,-0.749079,-0.146818
27935,,9.682419,1.603300,-1.228050,0.008918,0.024740,-0.019260,0.829834,0.324463,-0.468262,0.644590,-0.042991,-0.749064,-0.146831
27936,,9.691211,1.659793,-1.203275,0.014198,0.022911,-0.022011,0.831787,0.331299,-0.457764,0.644600,-0.042937,-0.749059,-0.146826
27937,,9.651855,1.594337,-1.234226,0.007231,0.019620,-0.019164,0.836426,0.326904,-0.461914,0.644596,-0.042930,-0.749059,-0.146844
27938,,9.660571,1.650888,-1.209759,0.012807,0.021426,-0.022896,0.836670,0.324707,-0.459473,0.644599,-0.042891,-0.749056,-0.146858
27939,,9.700118,1.623422,-1.231086,0.004251,0.021214,-0.020554,0.834229,0.324707,-0.461670,0.644599,-0.042888,-0.749050,-0.146892
27940,,9.712487,1.625465,-1.208364,0.018791,0.018238,-0.020132,0.836426,0.329102,-0.457520,0.644595,-0.042834,-0.749061,-0.146867
27941,,9.679854,1.690113,-1.188245,0.010715,0.017094,-0.019149,0.834229,0.326904,-0.461914,0.644582,-0.042818,-0.749073,-0.146871
27942,,9.646114,1.636614,-1.251418,0.008907,0.016396,-0.016380,0.834229,0.329102,-0.461914,0.644570,-0.042819,-0.749081,-0.146877
27943,,9.672800,1.704916,-1.238288,0.008274,0.013408,-0.009454,0.836670,0.324707,-0.459473,0.644550,-0.042850,-0.749101,-0.146858
27944,,9.694525,1.663944,-1.249230,0.001266,0.018599,-0.011800,0.831787,0.329102,-0.459717,0.644549,-0.042888,-0.749096,-0.146876
27945,,9.669452,1.619028,-1.232158,-0.001945,0.016414,-0.009910,0.834229,0.329102,-0.461914,0.644537,-0.042949,-0.749098,-0.146898
27946,,9.644371,1.574037,-1.215293,-0.002791,0.013854,-0.009859,0.831787,0.329102,-0.466309,0.644518,-0.043012,-0.749106,-0.146925
27947,,9.680367,1.600029,-1.235364,0.006141,0.017562,-0.010894,0.836426,0.331299,-0.464111,0.644512,-0.043042,-0.749110,-0.146920
27948,,9.692821,1.601339,-1.212764,0.012274,0.018297,-0.013691,0.838867,0.326904,-0.453125,0.644509,-0.043040,-0.749116,-0.146905
27949,,9.685908,1.614701,-1.264183,0.016160,0.014985,-0.017316,0.834473,0.322510,-0.457275,0.644491,-0.043015,-0.749137,-0.146883
27950,,9.699821,1.637438,-1.214756,0.021951,0.016367,-0.014169,0.834229,0.326904,-0.457520,0.644485,-0.042980,-0.749155,-0.146830
27951,,9.642344,1.700863,-1.236860,0.012351,0.018154,-0.011405,0.836426,0.326904,-0.463867,0.644482,-0.042987,-0.749162,-0.146803
27952,,9.651468,1.614189,-1.211233,0.009919,0.018671,-0.011862,0.831543,0.333496,-0.459961,0.644482,-0.042998,-0.749164,-0.146789
27953,,9.657079,1.627397,-1.241464,0.006705,0.016487,-0.009972,0.838867,0.326904,-0.463867,0.644473,-0.043030,-0.749172,-0.146778
27954,,9.687548,1.640946,-1.229605,0.009507,0.019461,-0.008213,0.834229,0.326904,-0.453125,0.644478,-0.043060,-0.749170,-0.146760
27955,,9.698530,1.620654,-1.234168,0.006776,0.016345,-0.007681,0.829834,0.322266,-0.459473,0.644470,-0.043101,-0.749178,-0.146742
27956,,9.683626,1.651327,-1.167469,0.009995,0.018530,-0.009574,0.836426,0.326904,-0.463867,0.644473,-0.043114,-0.749180,-0.146714
27957,,9.716668,1.634695,-1.241752,0.008113,0.017974,-0.009097,0.831787,0.331299,-0.461914,0.644470,-0.043144,-0.749184,-0.146696
27958,,9.668370,1.610167,-1.239663,0.006231,0.017418,-0.008620,0.836426,0.326904,-0.468262,0.644467,-0.043181,-0.749187,-0.146687
27959,,9.670763,1.535305,-1.266868,0.004832,0.015930,-0.009501,0.834229,0.324707,-0.463867,0.644455,-0.043222,-0.749195,-0.146682
27960,,9.679345,1.591076,-1.242848,0.027087,0.019113,-0.016544,0.832031,0.324463,-0.461670,0.644458,-0.043154,-0.749210,-0.146615
27961,,9.669895,1.634424,-1.208123,0.017182,0.017263,-0.012797,0.834473,0.322510,-0.463867,0.644452,-0.043141,-0.749224,-0.146574
27962,,9.686404,1.626921,-1.244556,0.014135,0.018992,-0.016486,0.831543,0.333496,-0.464111,0.644452,-0.043111,-0.749230,-0.146551
27963,,9.684029,1.703756,-1.214213,0.007575,0.019046,-0.010043,0.838623,0.329102,-0.457520,0.644453,-0.043138,-0.749231,-0.146537
27964,,9.653391,1.646466,-1.165375,-0.001915,0.016403,-0.009948,0.836670,0.324707,-0.463867,0.644442,-0.043205,-0.749230,-0.146570
27965,,9.679473,1.596473,-1.234905,0.001372,0.018448,-0.009547,0.834229,0.326904,-0.455322,0.644439,-0.043255,-0.749228,-0.146579
27966,,9.680946,1.618830,-1.205987,0.005568,0.018771,-0.014155,0.836426,0.331299,-0.459717,0.644437,-0.043271,-0.749226,-0.146588
27967,,9.677773,1.532207,-1.201027,0.004535,0.020775,-0.013735,0.834229,0.326904,-0.463867,0.644441,-0.043293,-0.749220,-0.146599
27968,,9.667183,1.599956,-1.250550,0.013604,0.020067,-0.017427,0.831787,0.329102,-0.459717,0.644442,-0.043274,-0.749221,-0.146594
27969,,9.680895,1.623020,-1.200752,0.017079,0.017548,-0.017391,0.834473,0.317871,-0.459229,0.644434,-0.043244,-0.749235,-0.146568
27970,,9.675509,1.657643,-1.225163,0.012460,0.013873,-0.016381,0.827148,0.328857,-0.453125,0.644415,-0.043226,-0.749255,-0.146551
27971,,9.675455,1.658959,-1.223801,0.014225,0.018855,-0.014203,0.832031,0.326660,-0.459717,0.644413,-0.043216,-0.749262,-0.146526
27972,,9.663129,1.659813,-1.243172,0.003209,0.019143,-0.012333,0.836426,0.326904,-0.461914,0.644414,-0.043245,-0.749258,-0.146538
27973,,9.627158,1.635907,-1.220021,0.004248,0.017139,-0.012755,0.838867,0.324707,-0.466064,0.644404,-0.043274,-0.749263,-0.146545
27974,,9.667080,1.607739,-1.241337,0.006137,0.017697,-0.013233,0.834229,0.324707,-0.457275,0.644399,-0.043293,-0.749265,-0.146550
27975,,9.732023,1.625545,-1.278183,0.002063,0.012948,-0.011285,0.836426,0.329102,-0.468262,0.644375,-0.043337,-0.749282,-0.146560
27976,,9.678003,1.589125,-1.244765,0.013876,0.015364,-0.015506,0.829590,0.326660,-0.461914,0.644361,-0.043324,-0.749298,-0.146542
27977,,9.695959,1.602921,-1.254184,0.011503,0.015738,-0.013674,0.834473,0.318115,-0.463623,0.644347,-0.043328,-0.749313,-0.146526
27978,,9.673980,1.645966,-1.240714,0.007730,0.014622,-0.012721,0.836426,0.326904,-0.461914,0.644333,-0.043332,-0.749328,-0.146509
27979,,9.677953,1.592693,-1.240587,0.005110,0.019700,-0.012822,0.838623,0.329102,-0.468262,0.644333,-0.043356,-0.749325,-0.146515
27980,,9.677944,1.594025,-1.238945,0.000916,0.015228,-0.015463,0.836426,0.331299,-0.466309,0.644315,-0.043389,-0.749332,-0.146549
27981,,9.701583,1.620192,-1.279954,0.008528,0.017323,-0.015077,0.834229,0.326904,-0.457520,0.644306,-0.043395,-0.749340,-0.146548
27982,,9.684892,1.630224,-1.240503,0.008042,0.018256,-0.013722,0.834229,0.329102,-0.459717,0.644302,-0.043411,-0.749342,-0.146552
27983,,9.684877,1.631565,-1.238859,0.007986,0.018395,-0.016019,0.841064,0.326904,-0.466064,0.644295,-0.043415,-0.749346,-0.146556
27984,,9.654555,1.619993,-1.247714,0.007196,0.015694,-0.013666,0.831787,0.329102,-0.464111,0.644282,-0.043435,-0.749356,-0.146563
27985,,9.695820,1.613326,-1.241856,0.017981,0.020119,-0.017467,0.834229,0.329102,-0.459717,0.644283,-0.043400,-0.749362,-0.146535
27986,,9.684744,1.635810,-1.234294,0.011412,0.016018,-0.018276,0.838623,0.331299,-0.459717,0.644268,-0.043387,-0.749375,-0.146538
27987,,9.683459,1.615791,-1.259854,0.013287,0.020727,-0.011509,0.834229,0.324707,-0.463867,0.644275,-0.043389,-0.749375,-0.146509
27988,,9.672496,1.637745,-1.252062,0.015670,0.020354,-0.013344,0.834229,0.329102,-0.464111,0.644281,-0.043380,-0.749375,-0.146483
27989,,9.654554,1.626231,-1.239582,0.008968,0.020679,-0.011500,0.829834,0.324463,-0.463867,0.644287,-0.043396,-0.749372,-0.146469
27990,,9.677920,1.606748,-1.222588,0.010313,0.022309,-0.012918,0.838623,0.331299,-0.464111,0.644300,-0.043394,-0.749363,-0.146454
27991,,9.665703,1.607543,-1.241750,0.010808,0.021376,-0.014276,0.831787,0.331299,-0.464111,0.644307,-0.043393,-0.749360,-0.146443
27992,,9.666946,1.630225,-1.212724,0.010757,0.021514,-0.016575,0.834229,0.324707,-0.459473,0.644312,-0.043390,-0.749354,-0.146450
27993,,9.694757,1.602132,-1.254501,0.005342,0.023605,-0.018446,0.836426,0.326904,-0.461914,0.644323,-0.043390,-0.749340,-0.146473
27994,,9.682490,1.603399,-1.273593,0.013147,0.021142,-0.018411,0.836426,0.326904,-0.466064,0.644329,-0.043364,-0.749338,-0.146468
27995,,9.684856,1.647633,-1.217572,0.013697,0.020072,-0.017472,0.836426,0.331299,-0.468506,0.644329,-0.043343,-0.749341,-0.146457
27996,,9.683642,1.627785,-1.242890,0.008881,0.020954,-0.016107,0.834229,0.329102,-0.459717,0.644333,-0.043343,-0.749336,-0.146464
27997,,9.664481,1.595317,-1.257328,0.009737,0.023517,-0.016171,0.836426,0.326904,-0.463867,0.644346,-0.043336,-0.749325,-0.146463
27998,,9.682500,1.609348,-1.265990,0.010779,0.021515,-0.016588,0.834229,0.324707,-0.468262,0.644353,-0.043329,-0.749319,-0.146465
27999,,9.701679,1.644642,-1.247635,0.012726,0.021939,-0.014768,0.834229,0.324707,-0.466064,0.644362,-0.043319,-0.749316,-0.146449
28000,,9.693620,1.591168,-1.268143,0.010787,0.021514,-0.016592,0.831787,0.326660,-0.457520,0.644370,-0.043299,-0.749311,-0.146439
28001,,9.689484,1.646952,-1.264947,0.020844,0.023114,-0.015734,0.836426,0.326904,-0.459717,0.644385,-0.043259,-0.749310,-0.146396
28002,,9.690649,1.669528,-1.235994,0.013282,0.020869,-0.013833,0.838867,0.326904,-0.459717,0.644392,-0.043252,-0.749307,-0.146377
28003,,9.672758,1.657907,-1.223171,0.009724,0.027672,-0.008946,0.836670,0.320313,-0.459473,0.644426,-0.043270,-0.749281,-0.146355
28004,,9.653820,1.624610,-1.237326,0.009964,0.022971,-0.006998,0.833740,0.335693,-0.459961,0.644447,-0.043296,-0.749268,-0.146324
28005,,9.714400,1.651095,-1.214455,0.013492,0.020325,-0.004646,0.834229,0.326904,-0.468262,0.644458,-0.043323,-0.749268,-0.146272
28006,,9.683287,1.616900,-1.250251,0.011107,0.020697,-0.002818,0.836426,0.329102,-0.459717,0.644470,-0.043370,-0.749262,-0.146232
28007,,9.684574,1.638581,-1.221258,0.012410,0.022463,-0.006536,0.832031,0.324463,-0.463867,0.644487,-0.043392,-0.749254,-0.146190
28008,,9.675713,1.562533,-1.268710,0.013907,0.023686,-0.001063,0.829590,0.328857,-0.459717,0.644514,-0.043427,-0.749241,-0.146128
28009,,9.713001,1.609207,-1.261332,0.014727,0.013757,-0.005408,0.843750,0.320313,-0.461426,0.644500,-0.043453,-0.749263,-0.146072
28010,,9.666041,1.605077,-1.232669,0.017388,0.021177,-0.001008,0.841064,0.326904,-0.466064,0.644519,-0.043479,-0.749260,-0.145995
28011,,9.679001,1.650737,-1.267469,0.017839,0.020379,-0.004662,0.838867,0.326904,-0.470459,0.644531,-0.043492,-0.749262,-0.145926
28012,,9.673371,1.638677,-1.233956,0.015501,0.020616,-0.000537,0.832275,0.320068,-0.461670,0.644546,-0.043530,-0.749260,-0.145859
28013,,9.672542,1.617303,-1.259218,0.006794,0.020643,-0.002826,0.834229,0.324707,-0.463867,0.644558,-0.043585,-0.749253,-0.145826
28014,,9.696045,1.596912,-1.242115,0.011174,0.020562,-0.000534,0.836670,0.320313,-0.463623,0.644575,-0.043624,-0.749249,-0.145762
28015,,9.704229,1.651814,-1.217978,0.007341,0.019574,-0.001884,0.838867,0.326904,-0.461670,0.644583,-0.043682,-0.749246,-0.145724
28016,,9.673289,1.617194,-1.253608,0.005359,0.023310,0.003528,0.836670,0.324707,-0.457275,0.644611,-0.043762,-0.749226,-0.145677
28017,,9.690971,1.584338,-1.204634,0.006040,0.017810,0.001832,0.838867,0.324707,-0.466064,0.644615,-0.043839,-0.749227,-0.145631
28018,,9.691197,1.584211,-1.202985,0.007890,0.018506,-0.000941,0.841064,0.326904,-0.457520,0.644622,-0.043901,-0.749225,-0.145592
28019,,9.689357,1.541358,-1.255481,0.012224,0.018560,-0.000946,0.834229,0.326904,-0.468262,0.644628,-0.043947,-0.749229,-0.145532
28020,,9.667325,1.583153,-1.242213,0.021387,0.017734,-0.002307,0.836670,0.322510,-0.461670,0.644633,-0.043965,-0.749240,-0.145450
28021,,9.703594,1.608172,-1.262049,0.018998,0.018108,-0.000482,0.834473,0.320313,-0.468018,0.644639,-0.043991,-0.749249,-0.145363
28022,,9.685761,1.595514,-1.249979,0.017061,0.017680,-0.002308,0.829834,0.322266,-0.468262,0.644645,-0.044007,-0.749259,-0.145283
28023,,9.717130,1.629851,-1.210999,0.015754,0.015918,0.001410,0.836670,0.322510,-0.459473,0.644644,-0.044053,-0.749273,-0.145201
28024,,9.674063,1.594551,-1.268465,0.013318,0.016424,0.000937,0.831787,0.326660,-0.457520,0.644646,-0.044095,-0.749283,-0.145125
28025,,9.656244,1.581780,-1.256413,0.012779,0.017492,-0.000011,0.832031,0.322266,-0.468262,0.644649,-0.044144,-0.749290,-0.145060
28026,,9.679719,1.561080,-1.239608,0.010929,0.016798,0.002761,0.834229,0.324707,-0.461670,0.644653,-0.044204,-0.749297,-0.144991
28027,,9.684852,1.551607,-1.297106,0.018067,0.015809,-0.005017,0.836914,0.318115,-0.461426,0.644647,-0.044218,-0.749315,-0.144921
28028,,9.686973,1.594673,-1.241639,0.014638,0.018186,-0.002788,0.836426,0.326904,-0.466064,0.644654,-0.044245,-0.749320,-0.144856
28029,,9.686163,1.573321,-1.267250,0.015678,0.016183,-0.003194,0.834473,0.320313,-0.455078,0.644650,-0.044273,-0.749334,-0.144790
28030,,9.710482,1.574734,-1.223488,0.011259,0.016393,-0.007791,0.831787,0.326660,-0.455322,0.644645,-0.044299,-0.749343,-0.144759
28031,,9.662382,1.549590,-1.222068,0.009406,0.015700,-0.005019,0.838867,0.326904,-0.463867,0.644637,-0.044342,-0.749355,-0.144722
28032,,9.687459,1.596157,-1.235920,0.017816,0.020640,-0.009286,0.834473,0.320313,-0.463623,0.644646,-0.044346,-0.749355,-0.144679
28033,,9.715758,1.567046,-1.277953,0.014699,0.014016,-0.010024,0.832031,0.324463,-0.466064,0.644629,-0.044354,-0.749377,-0.144638
28034,,9.686620,1.576128,-1.260251,0.021298,0.018132,-0.009220,0.836914,0.318115,-0.461426,0.644632,-0.044332,-0.749390,-0.144567
28035,,9.663462,1.597144,-1.274340,0.012308,0.014390,-0.008202,0.841064,0.324707,-0.463867,0.644617,-0.044354,-0.749408,-0.144529
28036,,9.668702,1.564805,-1.247060,0.015609,0.016448,-0.007801,0.839111,0.320313,-0.463623,0.644613,-0.044365,-0.749421,-0.144481
28037,,9.686822,1.578008,-1.256338,0.011772,0.015457,-0.009153,0.836670,0.320313,-0.461670,0.644601,-0.044385,-0.749436,-0.144448
28038,,9.686905,1.578622,-1.254928,0.010777,0.017329,-0.006452,0.838867,0.322510,-0.457275,0.644601,-0.044413,-0.749442,-0.144411
28039,,9.675848,1.600155,-1.247622,0.010738,0.017459,-0.008753,0.838867,0.322510,-0.461670,0.644597,-0.044436,-0.749449,-0.144382
28040,,9.699162,1.580516,-1.230537,0.005364,0.019405,-0.008353,0.834473,0.322510,-0.466064,0.644601,-0.044482,-0.749444,-0.144380
28041,,9.697456,1.538088,-1.283068,0.018598,0.014878,-0.006381,0.843506,0.322510,-0.463867,0.644590,-0.044491,-0.749465,-0.144313
28042,,9.704442,1.572152,-1.286509,0.016444,0.019144,-0.010179,0.834473,0.322510,-0.466064,0.644594,-0.044490,-0.749470,-0.144271
28043,,9.676177,1.602751,-1.241732,0.014225,0.014952,-0.008685,0.841309,0.320313,-0.465820,0.644582,-0.044504,-0.749488,-0.144228
28044,,9.698573,1.561619,-1.251855,0.008311,0.017963,-0.009236,0.836914,0.318115,-0.463623,0.644580,-0.044529,-0.749491,-0.144209
28045,,9.675439,1.582647,-1.265830,0.007490,0.015269,-0.006864,0.836670,0.322510,-0.463867,0.644569,-0.044571,-0.749503,-0.144185
28046,,9.698737,1.563021,-1.248835,0.005876,0.018468,-0.009714,0.836914,0.315918,-0.463623,0.644569,-0.044601,-0.749503,-0.144176
28047,,9.680755,1.551233,-1.236660,0.006955,0.016336,-0.007815,0.843750,0.318115,-0.470215,0.644561,-0.044640,-0.749512,-0.144158
28048,,9.669637,1.573112,-1.229233,0.009104,0.020787,-0.013914,0.834229,0.324707,-0.463867,0.644568,-0.044637,-0.749508,-0.144145
28049,,9.686876,1.565240,-1.265221,0.009860,0.015025,-0.010991,0.834473,0.320313,-0.459473,0.644553,-0.044656,-0.749523,-0.144126
28050,,9.710137,1.545947,-1.248081,0.010510,0.022285,-0.013041,0.834229,0.326904,-0.461914,0.644566,-0.044659,-0.749514,-0.144114
28051,,9.686952,1.567510,-1.261820,0.006850,0.016724,-0.014721,0.834717,0.315674,-0.461426,0.644554,-0.044673,-0.749523,-0.144119
28052,,9.692098,1.535937,-1.234139,0.012055,0.019347,-0.014793,0.834473,0.320313,-0.461670,0.644555,-0.044664,-0.749526,-0.144104
28053,,9.680894,1.558207,-1.226765,0.012560,0.018411,-0.016145,0.832031,0.322266,-0.463867,0.644549,-0.044653,-0.749533,-0.144092
28054,,9.686920,1.571647,-1.256912,0.007685,0.019417,-0.017102,0.832275,0.317871,-0.463623,0.644548,-0.044647,-0.749533,-0.144099
28055,,9.693769,1.606509,-1.260093,0.012602,0.018283,-0.013847,0.836914,0.318115,-0.465820,0.644544,-0.044644,-0.749541,-0.144079
28056,,9.686923,1.574329,-1.253530,0.007190,0.020353,-0.015757,0.832275,0.320068,-0.468018,0.644548,-0.044637,-0.749538,-0.144077
28057,,9.686947,1.575637,-1.251698,0.013471,0.020848,-0.013926,0.839111,0.322510,-0.466064,0.644554,-0.044630,-0.749538,-0.144055
28058,,9.675011,1.576241,-1.270967,0.005655,0.023291,-0.014015,0.838867,0.326904,-0.466064,0.644568,-0.044638,-0.749524,-0.144060
28059,,9.668959,1.565729,-1.237174,0.009605,0.019979,-0.017585,0.834717,0.315674,-0.465820,0.644567,-0.044630,-0.749525,-0.144063
28060,,9.698258,1.558873,-1.251531,0.012408,0.022979,-0.015835,0.832031,0.326660,-0.463867,0.644581,-0.044612,-0.749516,-0.144051
28061,,9.697555,1.538649,-1.276513,0.012949,0.021914,-0.014885,0.841553,0.318115,-0.465820,0.644590,-0.044602,-0.749513,-0.144034
28062,,9.687082,1.582598,-1.241830,0.009944,0.023608,-0.018621,0.836670,0.322510,-0.459473,0.644602,-0.044585,-0.749501,-0.144043
28063,,9.675114,1.583551,-1.261057,0.014827,0.022606,-0.017664,0.839355,0.315918,-0.459229,0.644612,-0.044558,-0.749497,-0.144028
28064,,9.698313,1.564997,-1.243434,0.008017,0.023172,-0.020456,0.834473,0.322510,-0.466064,0.644623,-0.044542,-0.749484,-0.144050
28065,,9.687044,1.587617,-1.235709,0.006686,0.021416,-0.016731,0.839111,0.322510,-0.466064,0.644627,-0.044545,-0.749478,-0.144063
28066,,9.702738,1.514045,-1.240117,0.003683,0.023108,-0.020469,0.838867,0.326904,-0.459717,0.644635,-0.044541,-0.749464,-0.144100
28067,,9.674368,1.568977,-1.279655,0.009430,0.024673,-0.019587,0.834473,0.318115,-0.463623,0.644650,-0.044522,-0.749450,-0.144112
28068,,9.704368,1.584088,-1.266711,0.001788,0.022543,-0.020003,0.832031,0.324463,-0.457520,0.644656,-0.044530,-0.749436,-0.144158
28069,,9.667560,1.539212,-1.270340,0.008903,0.025739,-0.020545,0.841309,0.320313,-0.465820,0.644674,-0.044509,-0.749418,-0.144176
28070,,9.693037,1.608820,-1.256617,0.006646,0.021671,-0.021346,0.832275,0.320068,-0.465820,0.644677,-0.044497,-0.749410,-0.144207
28071,,9.686223,1.577113,-1.249730,0.012421,0.023112,-0.018160,0.838867,0.322510,-0.461670,0.644688,-0.044475,-0.749403,-0.144203
28072,,9.704935,1.612922,-1.231129,0.007041,0.025046,-0.017780,0.841553,0.315918,-0.463623,0.644707,-0.044466,-0.749384,-0.144217
28073,,9.651759,1.621413,-1.255299,0.007580,0.023983,-0.016827,0.838867,0.324707,-0.466064,0.644721,-0.044464,-0.749371,-0.144227
28074,,9.675034,1.602675,-1.237286,-0.002117,0.025722,-0.014158,0.834473,0.322510,-0.466064,0.644743,-0.044501,-0.749342,-0.144266
28075,,9.686450,1.583031,-1.240453,0.000352,0.025097,-0.011373,0.836670,0.322510,-0.466064,0.644763,-0.044542,-0.749318,-0.144285
28076,,9.685990,1.562533,-1.264982,-0.001549,0.024531,-0.010904,0.832031,0.326660,-0.463867,0.644783,-0.044585,-0.749294,-0.144309
28077,,9.686146,1.563558,-1.262520,-0.000148,0.026034,-0.010030,0.834229,0.326904,-0.463867,0.644808,-0.044633,-0.749267,-0.144326
28078,,9.698175,1.565325,-1.238813,0.005214,0.024229,-0.012712,0.836426,0.326904,-0.463867,0.644825,-0.044656,-0.749249,-0.144338
28079,,9.681276,1.598450,-1.284090,0.007681,0.023605,-0.009926,0.841309,0.320313,-0.472412,0.644842,-0.044680,-0.749234,-0.144325
28080,,9.668440,1.554244,-1.245087,0.004131,0.026483,-0.016932,0.836670,0.322510,-0.470215,0.644865,-0.044685,-0.749209,-0.144351
28081,,9.668526,1.555581,-1.242752,0.007663,0.023732,-0.012233,0.836914,0.315918,-0.461426,0.644882,-0.044701,-0.749195,-0.144345
28082,,9.645995,1.598309,-1.229250,0.006650,0.025605,-0.009541,0.832275,0.320068,-0.461670,0.644909,-0.044717,-0.749174,-0.144328
28083,,9.651337,1.567797,-1.312531,0.012396,0.027178,-0.008650,0.841309,0.320313,-0.459473,0.644942,-0.044728,-0.749152,-0.144294
28084,,9.753242,1.609026,-1.256306,0.007236,0.024289,-0.003981,0.832031,0.324463,-0.461670,0.644969,-0.044772,-0.749132,-0.144264
28085,,9.779343,1.698541,-1.215539,-0.002803,0.022393,-0.000287,0.839111,0.320313,-0.459473,0.644986,-0.044867,-0.749112,-0.144259
28086,,9.706754,1.626613,-1.198342,-0.027296,0.018910,0.000171,0.834229,0.326904,-0.461914,0.644987,-0.045045,-0.749084,-0.144346
28087,,9.626416,1.477997,-1.230225,-0.029174,0.018217,0.002941,0.836670,0.322510,-0.463867,0.644985,-0.045240,-0.749058,-0.144429
28088,,9.643686,1.447994,-1.292587,-0.012774,0.016565,-0.008422,0.832275,0.315674,-0.457031,0.644973,-0.045342,-0.749050,-0.144491
28089,,9.685572,1.462944,-1.258391,0.005804,0.023042,-0.009460,0.837158,0.313721,-0.461426,0.644988,-0.045374,-0.749037,-0.144484
28090,,9.676449,1.572625,-1.255013,0.030961,0.021151,-0.013870,0.834229,0.324707,-0.461670,0.645003,-0.045294,-0.749048,-0.144382
28091,,9.695526,1.629477,-1.209933,0.007869,0.019168,-0.012548,0.838867,0.324707,-0.466064,0.645003,-0.045310,-0.749049,-0.144376
28092,,9.713678,1.643070,-1.218593,-0.000776,0.018773,-0.007983,0.839355,0.315918,-0.463623,0.645001,-0.045374,-0.749043,-0.144393
28093,,9.683392,1.608954,-1.254675,-0.012236,0.015497,-0.007478,0.836670,0.322510,-0.463867,0.644986,-0.045478,-0.749040,-0.144445
28094,,9.680939,1.500348,-1.275695,-0.009460,0.018631,-0.008027,0.839111,0.320313,-0.461670,0.644985,-0.045560,-0.749028,-0.144485
28095,,9.704251,1.481101,-1.257841,0.003381,0.023539,-0.009958,0.836670,0.320313,-0.465820,0.645001,-0.045598,-0.749011,-0.144488
28096,,9.705976,1.548524,-1.286916,0.012205,0.019370,-0.014831,0.834473,0.322510,-0.463867,0.645002,-0.045586,-0.749015,-0.144471
28097,,9.718240,1.572090,-1.236839,0.017421,0.022009,-0.014891,0.836670,0.322510,-0.461670,0.645012,-0.045561,-0.749014,-0.144437
28098,,9.688850,1.581470,-1.218700,0.008582,0.026304,-0.012328,0.834229,0.324707,-0.461670,0.645039,-0.045569,-0.748991,-0.144429
28099,,9.718002,1.552673,-1.259649,0.010856,0.017612,-0.011106,0.838867,0.322510,-0.459473,0.645034,-0.045582,-0.748999,-0.144407
28100,,9.706666,1.574444,-1.252584,0.013296,0.017117,-0.010616,0.829590,0.326660,-0.463867,0.645028,-0.045594,-0.749009,-0.144380
28101,,9.682320,1.550728,-1.208826,0.012259,0.019117,-0.010231,0.836426,0.326904,-0.461914,0.645030,-0.045605,-0.749012,-0.144350
28102,,9.629763,1.579796,-1.206902,0.013147,0.021558,-0.008010,0.834473,0.317871,-0.461426,0.645042,-0.045623,-0.749008,-0.144316
28103,,9.653033,1.560450,-1.189265,0.011736,0.020179,-0.011194,0.836670,0.320313,-0.465820,0.645047,-0.045631,-0.749008,-0.144292
28104,,9.677558,1.585832,-1.229590,0.002552,0.020843,-0.007595,0.832031,0.326660,-0.466064,0.645057,-0.045672,-0.748998,-0.144283
28105,,9.652497,1.518920,-1.239311,0.003050,0.020032,-0.011246,0.836670,0.320313,-0.463623,0.645059,-0.045708,-0.748993,-0.144291
28106,,9.676437,1.543210,-1.167721,0.004945,0.020726,-0.014020,0.836670,0.320313,-0.463623,0.645063,-0.045723,-0.748987,-0.144300
28107,,9.677047,1.545857,-1.277759,0.007913,0.019170,-0.012568,0.836670,0.320313,-0.465820,0.645062,-0.045739,-0.748988,-0.144293
28108,,9.818968,1.537372,-1.270225,0.007559,0.015665,-0.013832,0.832275,0.317871,-0.459229,0.645049,-0.045747,-0.749000,-0.144287
28109,,9.814239,1.592903,-1.268145,0.007576,0.015540,-0.011528,0.838867,0.322510,-0.463867,0.645035,-0.045771,-0.749012,-0.144278
28110,,9.695480,1.583640,-1.256949,-0.012074,0.011166,-0.012432,0.834473,0.322510,-0.461670,0.645001,-0.045852,-0.749024,-0.144342
28111,,9.604616,1.499987,-1.230587,-0.010675,0.012671,-0.011555,0.836914,0.315918,-0.463623,0.644972,-0.045937,-0.749032,-0.144401
28112,,9.610972,1.513267,-1.260722,-0.005131,0.019071,-0.014960,0.832031,0.322266,-0.457275,0.644969,-0.045978,-0.749024,-0.144445
28113,,9.652257,1.507169,-1.253524,0.008964,0.017175,-0.012955,0.834473,0.317871,-0.461426,0.644960,-0.045991,-0.749032,-0.144436
28114,,9.670706,1.542663,-1.235150,0.022163,0.025726,-0.015920,0.836670,0.322510,-0.461670,0.644987,-0.045938,-0.749023,-0.144385
28115,,9.702495,1.645134,-1.226367,0.023750,0.022540,-0.013040,0.836914,0.315918,-0.461426,0.645002,-0.045899,-0.749024,-0.144322
28116,,9.695935,1.612304,-1.219773,0.014229,0.019443,-0.006099,0.834717,0.315674,-0.461426,0.645010,-0.045914,-0.749027,-0.144269
28117,,9.724006,1.538283,-1.202958,0.005193,0.015659,-0.005114,0.836670,0.320313,-0.463623,0.645001,-0.045970,-0.749035,-0.144248
28118,,9.742172,1.551597,-1.212021,0.000479,0.012201,-0.008710,0.834473,0.322510,-0.466064,0.644977,-0.046019,-0.749052,-0.144248
28119,,9.680657,1.437805,-1.228682,0.004804,0.012529,-0.013293,0.834473,0.322510,-0.466064,0.644950,-0.046047,-0.749073,-0.144254
28120,,9.670456,1.504629,-1.280308,0.023215,0.011091,-0.018170,0.830078,0.317871,-0.459229,0.644920,-0.045991,-0.749112,-0.144202
28121,,9.688477,1.518514,-1.289881,0.028460,0.013488,-0.013614,0.834717,0.315674,-0.457031,0.644901,-0.045941,-0.749147,-0.144121
28122,,9.732002,1.643393,-1.234003,0.022720,0.011903,-0.014525,0.832031,0.322266,-0.461670,0.644878,-0.045897,-0.749182,-0.144056
28123,,9.660886,1.638321,-1.249543,0.003781,0.014400,-0.010614,0.834473,0.318115,-0.465820,0.644860,-0.045938,-0.749195,-0.144058
28124,,9.647873,1.593698,-1.211645,-0.003327,0.010934,-0.005480,0.836914,0.318115,-0.465820,0.644833,-0.046013,-0.749213,-0.144062
28125,,9.700395,1.544536,-1.237428,-0.002295,0.009060,-0.008168,0.832275,0.317871,-0.468018,0.644795,-0.046086,-0.749238,-0.144078
28126,,9.723531,1.525369,-1.220638,0.004481,0.008772,-0.009948,0.836670,0.322510,-0.463867,0.644759,-0.046113,-0.749271,-0.144060
28127,,9.652035,1.476735,-1.289978,0.013879,0.016067,-0.009677,0.834229,0.324707,-0.461670,0.644750,-0.046123,-0.749285,-0.144022
28128,,9.693337,1.470197,-1.283212,0.029875,0.015002,-0.012740,0.832275,0.320068,-0.459473,0.644738,-0.046073,-0.749314,-0.143938
28129,,9.684017,1.623191,-1.227416,0.028485,0.013494,-0.013620,0.834473,0.322510,-0.466064,0.644720,-0.046024,-0.749349,-0.143857
28130,,9.665262,1.546694,-1.296533,0.017686,0.017576,-0.017539,0.834717,0.315674,-0.467773,0.644713,-0.045986,-0.749362,-0.143828
28131,,9.653748,1.568801,-1.289768,0.020663,0.015903,-0.013773,0.834473,0.320313,-0.465820,0.644702,-0.045959,-0.749383,-0.143777
28132,,9.711726,1.530921,-1.235063,0.007604,0.015783,-0.016176,0.832031,0.324463,-0.461670,0.644688,-0.045950,-0.749397,-0.143771
28133,,9.789337,1.572013,-1.221931,0.010053,0.015171,-0.013372,0.830078,0.317871,-0.461426,0.644672,-0.045959,-0.749413,-0.143758
28134,,9.724690,1.578868,-1.269129,0.004308,0.013580,-0.014282,0.836670,0.320313,-0.465820,0.644650,-0.045979,-0.749429,-0.143767
28135,,9.681680,1.499493,-1.269197,0.005359,0.011460,-0.012354,0.837158,0.313721,-0.467773,0.644619,-0.046010,-0.749453,-0.143768
28136,,9.635456,1.562295,-1.273285,0.019280,0.014398,-0.014654,0.836670,0.320313,-0.465820,0.644604,-0.045971,-0.749479,-0.143714
28137,,9.676711,1.556170,-1.266331,0.009018,0.017169,-0.012999,0.836914,0.315918,-0.463623,0.644596,-0.045984,-0.749487,-0.143705
28138,,9.658626,1.544618,-1.254454,0.009021,0.017169,-0.013000,0.832275,0.320068,-0.459473,0.644589,-0.045989,-0.749495,-0.143690
28139,,9.676623,1.536801,-1.289966,0.009370,0.020798,-0.014055,0.839111,0.320313,-0.459473,0.644594,-0.045994,-0.749492,-0.143684
28140,,9.676768,1.559722,-1.261514,0.011983,0.015743,-0.013847,0.834473,0.322510,-0.466064,0.644581,-0.045999,-0.749505,-0.143671
28141,,9.706377,1.552819,-1.275890,0.009548,0.016231,-0.014348,0.836670,0.322510,-0.466064,0.644568,-0.046005,-0.749517,-0.143664
28142,,9.717985,1.554985,-1.253126,0.010593,0.014234,-0.014726,0.834717,0.315674,-0.463623,0.644548,-0.046006,-0.749536,-0.143654
28143,,9.717831,1.534606,-1.278706,0.008157,0.014721,-0.015227,0.834717,0.318115,-0.468018,0.644529,-0.046015,-0.749553,-0.143654
28144,,9.676532,1.543072,-1.283142,0.012517,0.014685,-0.012887,0.836670,0.322510,-0.466064,0.644514,-0.046003,-0.749572,-0.143619
28145,,9.676490,1.544232,-1.282068,0.014083,0.011749,-0.014607,0.839111,0.320313,-0.468018,0.644486,-0.045997,-0.749602,-0.143595
28146,,9.724366,1.593562,-1.253143,0.007992,0.019288,-0.014946,0.836670,0.320313,-0.459473,0.644484,-0.046002,-0.749603,-0.143596
28147,,9.669805,1.491645,-1.301177,0.002941,0.012065,-0.015178,0.834473,0.317871,-0.461426,0.644454,-0.046030,-0.749624,-0.143615
28148,,9.669820,1.514793,-1.273108,0.011999,0.015866,-0.016166,0.837158,0.313721,-0.472168,0.644440,-0.046023,-0.749637,-0.143607
28149,,9.711091,1.530789,-1.239249,0.010607,0.014355,-0.017044,0.834473,0.320313,-0.465820,0.644418,-0.046017,-0.749657,-0.143604
28150,,9.711057,1.554160,-1.211067,0.011479,0.017046,-0.019445,0.836914,0.318115,-0.463623,0.644408,-0.045980,-0.749670,-0.143593
28151,,9.669531,1.497977,-1.295930,0.018796,0.015830,-0.022563,0.836914,0.320313,-0.468018,0.644390,-0.045926,-0.749692,-0.143577
28152,,9.687560,1.555986,-1.251533,0.022287,0.013228,-0.020130,0.834473,0.317871,-0.461426,0.644366,-0.045867,-0.749724,-0.143537
28153,,9.705519,1.570486,-1.260702,0.013929,0.016680,-0.021262,0.839111,0.320313,-0.463623,0.644351,-0.045833,-0.749739,-0.143535
28154,,9.728512,1.509215,-1.296800,0.013931,0.016920,-0.025884,0.836914,0.313721,-0.452637,0.644335,-0.045782,-0.749753,-0.143551
28155,,9.640725,1.601691,-1.279933,0.017422,0.014199,-0.021139,0.839355,0.315918,-0.467773,0.644311,-0.045739,-0.749779,-0.143535
28156,,9.686959,1.542021,-1.273286,0.008190,0.014958,-0.019872,0.839111,0.320313,-0.452881,0.644292,-0.045729,-0.749794,-0.143550
28157,,9.693331,1.577444,-1.276891,0.009588,0.016591,-0.021308,0.832031,0.322266,-0.463867,0.644275,-0.045709,-0.749806,-0.143565
28158,,9.693224,1.579265,-1.275452,0.007673,0.015897,-0.018534,0.834473,0.322510,-0.466064,0.644257,-0.045717,-0.749816,-0.143589
28159,,9.704742,1.560219,-1.279293,0.009071,0.017530,-0.019970,0.836914,0.320313,-0.470215,0.644245,-0.045703,-0.749825,-0.143602
28160,,9.698182,1.528537,-1.272691,0.006635,0.018013,-0.020475,0.834717,0.315674,-0.472168,0.644235,-0.045688,-0.749831,-0.143623
28161,,9.709673,1.531279,-1.249710,0.012040,0.015990,-0.018502,0.837158,0.313721,-0.467773,0.644219,-0.045671,-0.749847,-0.143619
28162,,9.668330,1.518531,-1.280878,0.007169,0.017193,-0.024131,0.830078,0.317871,-0.465820,0.644206,-0.045624,-0.749858,-0.143633
28163,,9.656554,1.541520,-1.274066,0.007695,0.016136,-0.023165,0.841309,0.320313,-0.465820,0.644186,-0.045604,-0.749871,-0.143661
28164,,9.692510,1.590824,-1.266482,0.015889,0.017261,-0.021750,0.827393,0.324463,-0.470459,0.644175,-0.045554,-0.749886,-0.143649
28165,,9.703990,1.572080,-1.270448,0.010668,0.014715,-0.024007,0.832275,0.320068,-0.468018,0.644150,-0.045522,-0.749906,-0.143669
28166,,9.685752,1.561392,-1.258774,0.009621,0.016592,-0.021327,0.834473,0.317871,-0.457031,0.644135,-0.045485,-0.749920,-0.143672
28167,,9.644364,1.570204,-1.263253,0.010142,0.015416,-0.018048,0.836670,0.322510,-0.472412,0.644116,-0.045476,-0.749936,-0.143674
28168,,9.685617,1.543288,-1.282862,0.010681,0.014715,-0.024014,0.834473,0.322510,-0.461670,0.644092,-0.045441,-0.749955,-0.143693
28169,,9.703441,1.579865,-1.264973,0.011024,0.018107,-0.020458,0.841309,0.322510,-0.466064,0.644082,-0.045419,-0.749964,-0.143700
28170,,9.714935,1.582558,-1.241733,0.003169,0.020250,-0.016010,0.834229,0.324707,-0.461670,0.644082,-0.045444,-0.749957,-0.143731
28171,,9.697098,1.527758,-1.283242,0.000909,0.016163,-0.016792,0.830078,0.315674,-0.459229,0.644065,-0.045469,-0.749963,-0.143764
28172,,9.685341,1.550249,-1.276537,0.006325,0.014383,-0.019436,0.834717,0.318115,-0.468018,0.644042,-0.045468,-0.749979,-0.143787
28173,,9.667132,1.539355,-1.264964,0.010694,0.014598,-0.021710,0.841309,0.320313,-0.468018,0.644018,-0.045445,-0.749999,-0.143799
28174,,9.714848,1.546050,-1.289409,0.012961,0.018687,-0.020931,0.832031,0.326904,-0.470459,0.644012,-0.045407,-0.750007,-0.143795
28175,,9.691535,1.567720,-1.304077,0.013493,0.017748,-0.022275,0.832275,0.320068,-0.465820,0.644000,-0.045370,-0.750019,-0.143799
28176,,9.673180,1.578687,-1.265441,0.006689,0.018010,-0.020512,0.834473,0.322510,-0.466064,0.643989,-0.045352,-0.750025,-0.143818
28177,,9.661619,1.579451,-1.285063,0.002147,0.022361,-0.017969,0.836670,0.320313,-0.461670,0.643995,-0.045365,-0.750013,-0.143852
28178,,9.671863,1.516293,-1.230020,0.010017,0.020223,-0.022418,0.834473,0.322510,-0.463867,0.643992,-0.045338,-0.750013,-0.143873
28179,,9.702766,1.576338,-1.275447,0.011062,0.018111,-0.020476,0.836670,0.324707,-0.468262,0.643982,-0.045315,-0.750021,-0.143880
28180,,9.708058,1.523836,-1.273981,0.008096,0.019528,-0.019645,0.836426,0.329102,-0.468262,0.643977,-0.045305,-0.750022,-0.143899
28181,,9.697692,1.590690,-1.325381,0.014911,0.019269,-0.021410,0.834473,0.320313,-0.465820,0.643972,-0.045266,-0.750030,-0.143895
28182,,9.672706,1.589835,-1.255061,0.010203,0.015538,-0.020386,0.834473,0.322510,-0.463867,0.643952,-0.045249,-0.750046,-0.143909
28183,,9.667968,1.580346,-1.333623,0.010536,0.018933,-0.016831,0.834473,0.318115,-0.463623,0.643948,-0.045241,-0.750050,-0.143906
28184,,9.684330,1.572424,-1.256930,0.004620,0.021998,-0.019796,0.834473,0.318115,-0.465820,0.643953,-0.045237,-0.750041,-0.143936
28185,,9.672771,1.573322,-1.276614,0.013019,0.018809,-0.023267,0.834473,0.320313,-0.465820,0.643944,-0.045197,-0.750049,-0.143945
28186,,9.702510,1.567220,-1.290413,0.010027,0.019990,-0.017810,0.836670,0.324707,-0.466064,0.643945,-0.045177,-0.750050,-0.143941
28187,,9.666341,1.543332,-1.268044,0.015809,0.021845,-0.021521,0.836670,0.320313,-0.465820,0.643949,-0.045133,-0.750050,-0.143935
28188,,9.672904,1.556806,-1.298005,0.011957,0.020570,-0.018280,0.836670,0.324707,-0.463867,0.643951,-0.045114,-0.750050,-0.143935
28189,,9.672853,1.558602,-1.296233,0.014429,0.020327,-0.022402,0.834473,0.318115,-0.463623,0.643948,-0.045072,-0.750054,-0.143936
28190,,9.713771,1.575474,-1.261606,0.011447,0.021625,-0.019260,0.834473,0.322510,-0.461670,0.643953,-0.045052,-0.750050,-0.143942
28191,,9.660657,1.604873,-1.260562,0.011466,0.021741,-0.021577,0.834717,0.318115,-0.470215,0.643956,-0.045021,-0.750047,-0.143952
28192,,9.672755,1.563950,-1.290509,0.004622,0.021762,-0.015192,0.834473,0.322510,-0.468018,0.643964,-0.045029,-0.750038,-0.143963
28193,,9.690878,1.578138,-1.298670,0.006014,0.023281,-0.014318,0.832275,0.315674,-0.465820,0.643977,-0.045042,-0.750025,-0.143970
28194,,9.702323,1.580729,-1.275250,0.013033,0.018578,-0.018657,0.832031,0.322266,-0.461670,0.643973,-0.045006,-0.750034,-0.143954
28195,,9.714126,1.561387,-1.278632,0.010901,0.022334,-0.013301,0.839111,0.318115,-0.463623,0.643984,-0.045008,-0.750027,-0.143939
28196,,9.713798,1.584476,-1.250069,0.012490,0.019402,-0.015007,0.829834,0.320068,-0.465820,0.643984,-0.045001,-0.750030,-0.143926
28197,,9.654467,1.579655,-1.244219,0.011959,0.020341,-0.013669,0.836914,0.318115,-0.468018,0.643988,-0.045000,-0.750030,-0.143909
28198,,9.661119,1.592640,-1.274351,0.011108,0.017882,-0.015886,0.832275,0.320068,-0.463623,0.643982,-0.044981,-0.750039,-0.143891
28199,,9.677715,1.562502,-1.224518,0.010024,0.019645,-0.010894,0.841309,0.320313,-0.465820,0.643985,-0.044996,-0.750040,-0.143871
28200,,9.725711,1.568560,-1.248322,0.013376,0.021977,-0.015115,0.834229,0.324707,-0.459473,0.643995,-0.044983,-0.750035,-0.143854
28201,,9.667884,1.608004,-1.300771,0.003262,0.020238,-0.016090,0.836670,0.322510,-0.466064,0.643995,-0.045000,-0.750030,-0.143877
28202,,9.673518,1.554967,-1.298846,0.000251,0.021420,-0.010634,0.834473,0.320313,-0.468018,0.644001,-0.045055,-0.750016,-0.143903
28203,,9.673196,1.578043,-1.269880,0.002554,0.025745,-0.014493,0.834473,0.322510,-0.466064,0.644022,-0.045076,-0.749993,-0.143924
28204,,9.660378,1.534090,-1.230608,0.003074,0.024692,-0.013518,0.836670,0.324707,-0.468262,0.644042,-0.045093,-0.749973,-0.143936
28205,,9.685664,1.538156,-1.296955,0.006947,0.025971,-0.016763,0.838867,0.322510,-0.459473,0.644063,-0.045092,-0.749952,-0.143948
28206,,9.691956,1.573236,-1.299779,0.010444,0.023507,-0.016613,0.834229,0.324707,-0.470459,0.644075,-0.045090,-0.749940,-0.143956
28207,,9.715198,1.555241,-1.281241,0.006619,0.022457,-0.018005,0.839111,0.318115,-0.468018,0.644082,-0.045088,-0.749931,-0.143973
28208,,9.709649,1.610696,-1.279209,0.015267,0.022221,-0.008639,0.832275,0.320068,-0.465820,0.644099,-0.045084,-0.749927,-0.143921
28209,,9.691656,1.598719,-1.267307,0.005351,0.016023,-0.012195,0.834229,0.324707,-0.470459,0.644086,-0.045112,-0.749937,-0.143922
28210,,9.644726,1.551012,-1.293279,0.001145,0.023993,-0.010755,0.829590,0.324463,-0.459473,0.644104,-0.045143,-0.749918,-0.143930
28211,,9.680996,1.577733,-1.311524,0.006566,0.022113,-0.011064,0.834473,0.322510,-0.463867,0.644115,-0.045167,-0.749908,-0.143924
28212,,9.704303,1.559287,-1.293004,0.006592,0.022228,-0.013382,0.834473,0.322510,-0.466064,0.644124,-0.045186,-0.749897,-0.143932
28213,,9.686329,1.547455,-1.280827,0.013378,0.021756,-0.010497,0.839111,0.320313,-0.468018,0.644136,-0.045190,-0.749893,-0.143899
28214,,9.667822,1.557501,-1.241984,0.012892,0.022923,-0.013795,0.836670,0.322510,-0.459473,0.644150,-0.045179,-0.749886,-0.143877
28215,,9.704054,1.584372,-1.260276,0.007991,0.023749,-0.012514,0.836670,0.322510,-0.463867,0.644166,-0.045192,-0.749872,-0.143871
28216,,9.697958,1.551854,-1.253051,0.008508,0.022697,-0.011537,0.836914,0.318115,-0.470215,0.644179,-0.045217,-0.749860,-0.143870
28217,,9.704767,1.564714,-1.282929,0.008200,0.019295,-0.015089,0.839111,0.320313,-0.468018,0.644177,-0.045223,-0.749862,-0.143871
28218,,9.646021,1.537983,-1.303748,-0.002635,0.023052,-0.014486,0.832031,0.324463,-0.466064,0.644189,-0.045252,-0.749844,-0.143903
28219,,9.716190,1.568700,-1.257082,0.008030,0.023864,-0.014838,0.834473,0.322510,-0.472412,0.644204,-0.045256,-0.749830,-0.143904
28220,,9.686271,1.577907,-1.239729,0.002791,0.021174,-0.014792,0.834473,0.318115,-0.465820,0.644208,-0.045267,-0.749823,-0.143917
28221,,9.698196,1.558659,-1.242724,0.004209,0.022811,-0.016236,0.834229,0.324707,-0.468262,0.644217,-0.045279,-0.749810,-0.143938
28222,,9.645637,1.565606,-1.268664,0.005265,0.020819,-0.016595,0.834473,0.322510,-0.459473,0.644220,-0.045278,-0.749806,-0.143948
28223,,9.663733,1.580001,-1.276813,0.002288,0.022227,-0.015778,0.836670,0.322510,-0.466064,0.644227,-0.045298,-0.749794,-0.143974
28224,,9.699485,1.519369,-1.290014,0.007711,0.020351,-0.016079,0.827393,0.324463,-0.461670,0.644228,-0.045305,-0.749790,-0.143986
28225,,9.698236,1.564835,-1.234622,0.010035,0.024678,-0.019945,0.836914,0.318115,-0.468018,0.644243,-0.045283,-0.749777,-0.143997
28226,,9.687613,1.543303,-1.280776,0.012962,0.023045,-0.016129,0.839111,0.322510,-0.466064,0.644257,-0.045258,-0.749770,-0.143978
28227,,9.705704,1.557651,-1.289066,0.012632,0.019529,-0.017363,0.834473,0.320313,-0.470215,0.644255,-0.045241,-0.749775,-0.143970
28228,,9.723777,1.572126,-1.297334,0.014929,0.023743,-0.018913,0.834473,0.320313,-0.470215,0.644269,-0.045199,-0.749768,-0.143953
28229,,9.675699,1.568598,-1.270020,0.009659,0.020936,-0.016552,0.836914,0.315918,-0.463623,0.644272,-0.045194,-0.749765,-0.143954
28230,,9.665145,1.546855,-1.316368,0.011050,0.022461,-0.015678,0.832031,0.322266,-0.468262,0.644285,-0.045172,-0.749760,-0.143935
28231,,9.664524,1.570109,-1.287651,0.012441,0.023986,-0.014805,0.832275,0.317871,-0.465820,0.644301,-0.045162,-0.749749,-0.143920
28232,,9.705872,1.564825,-1.279070,0.010516,0.023400,-0.014347,0.829834,0.322266,-0.463867,0.644317,-0.045144,-0.749740,-0.143898
28233,,9.723317,1.600852,-1.260534,0.007171,0.021177,-0.012445,0.836670,0.322510,-0.468018,0.644324,-0.045161,-0.749734,-0.143895
28234,,9.682846,1.586543,-1.291637,0.004192,0.022583,-0.011633,0.836914,0.318115,-0.468018,0.644337,-0.045183,-0.749722,-0.143896
28235,,9.687357,1.577050,-1.236177,0.002742,0.020833,-0.007873,0.838867,0.322510,-0.461670,0.644344,-0.045232,-0.749713,-0.143894
28236,,9.670108,1.543114,-1.250750,0.005250,0.020592,-0.011989,0.834717,0.315674,-0.467773,0.644349,-0.045257,-0.749707,-0.143896
28237,,9.707859,1.526018,-1.322270,0.006097,0.023057,-0.009779,0.839111,0.320313,-0.461670,0.644364,-0.045287,-0.749693,-0.143889
28238,,9.694514,1.591597,-1.261929,0.009117,0.021764,-0.012912,0.838867,0.324707,-0.461670,0.644375,-0.045289,-0.749687,-0.143874
28239,,9.700443,1.538428,-1.259867,0.003329,0.020006,-0.011535,0.836670,0.324707,-0.463867,0.644377,-0.045323,-0.749681,-0.143882
28240,,9.683441,1.592584,-1.279687,0.006683,0.022230,-0.013439,0.836914,0.318115,-0.461426,0.644385,-0.045350,-0.749670,-0.143896
28241,,9.666202,1.558987,-1.294111,0.006178,0.023282,-0.014425,0.836914,0.318115,-0.461426,0.644398,-0.045362,-0.749657,-0.143903
28242,,9.677478,1.561473,-1.270410,0.007199,0.021179,-0.012459,0.834473,0.320313,-0.470215,0.644406,-0.045380,-0.749650,-0.143901
28243,,9.678377,1.540552,-1.294968,0.003673,0.023523,-0.010315,0.832275,0.317871,-0.465820,0.644422,-0.045415,-0.749633,-0.143904
28244,,9.700882,1.544160,-1.249432,0.001782,0.023048,-0.012177,0.829834,0.324463,-0.463867,0.644437,-0.045430,-0.749619,-0.143905
28245,,9.689784,1.544100,-1.268925,0.012494,0.023992,-0.014825,0.836914,0.320313,-0.468018,0.644453,-0.045420,-0.749608,-0.143890
28246,,9.677892,1.565952,-1.261716,0.005106,0.025161,-0.011765,0.836670,0.322510,-0.461670,0.644476,-0.045435,-0.749589,-0.143887
28247,,9.701980,1.525791,-1.269512,0.003390,0.020117,-0.013869,0.834473,0.320313,-0.459473,0.644476,-0.045460,-0.749584,-0.143902
28248,,9.659941,1.555493,-1.247504,0.010574,0.023406,-0.014371,0.834473,0.320313,-0.461670,0.644490,-0.045465,-0.749572,-0.143900
28249,,9.690105,1.549157,-1.260282,0.009056,0.026559,-0.017328,0.834473,0.322510,-0.463867,0.644514,-0.045454,-0.749551,-0.143906
28250,,9.707373,1.585557,-1.241602,0.016046,0.021652,-0.016976,0.836914,0.315918,-0.461426,0.644522,-0.045424,-0.749550,-0.143885
28251,,9.696269,1.585559,-1.261243,0.011972,0.024934,-0.013502,0.834473,0.320313,-0.463623,0.644542,-0.045420,-0.749536,-0.143868
28252,,9.661031,1.539076,-1.265504,0.006258,0.023393,-0.016770,0.836670,0.320313,-0.457275,0.644556,-0.045418,-0.749523,-0.143879
28253,,9.703218,1.512148,-1.283347,0.013074,0.023056,-0.016175,0.836670,0.320313,-0.465820,0.644568,-0.045402,-0.749516,-0.143866
28254,,9.655985,1.574419,-1.288354,0.016653,0.020825,-0.020639,0.836914,0.318115,-0.461426,0.644570,-0.045361,-0.749518,-0.143857
28255,,9.709241,1.549051,-1.284804,0.012244,0.020589,-0.018391,0.841309,0.322510,-0.468018,0.644571,-0.045341,-0.749519,-0.143854
28256,,9.714367,1.606245,-1.261443,0.019434,0.023883,-0.018892,0.834717,0.315674,-0.457031,0.644586,-0.045293,-0.749514,-0.143826
28257,,9.678220,1.581741,-1.239307,0.011115,0.022358,-0.013408,0.834473,0.320313,-0.457275,0.644597,-0.045293,-0.749507,-0.143812
28258,,9.661098,1.548087,-1.253951,0.012215,0.020478,-0.016078,0.836670,0.320313,-0.457275,0.644601,-0.045288,-0.749506,-0.143807
28259,,9.708444,1.576592,-1.250373,0.012002,0.024937,-0.013524,0.836670,0.322510,-0.459473,0.644621,-0.045283,-0.749491,-0.143789
28260,,9.697404,1.576523,-1.269955,0.011170,0.022468,-0.015736,0.834229,0.324707,-0.463867,0.644631,-0.045288,-0.749482,-0.143795
28261,,9.686356,1.576549,-1.289550,0.010120,0.024458,-0.015392,0.834473,0.317871,-0.461426,0.644648,-0.045283,-0.749468,-0.143790
28262,,9.721644,1.537997,-1.275477,0.006804,0.022340,-0.015813,0.839111,0.322510,-0.468018,0.644657,-0.045287,-0.749459,-0.143800
28263,,9.668375,1.566404,-1.275233,0.010128,0.024459,-0.015397,0.839111,0.322510,-0.466064,0.644674,-0.045282,-0.749445,-0.143795
28264,,9.691590,1.548503,-1.256281,0.004876,0.021750,-0.015360,0.834229,0.324707,-0.470459,0.644680,-0.045293,-0.749436,-0.143810
28265,,9.673514,1.537149,-1.244131,0.006356,0.023499,-0.019129,0.836914,0.318115,-0.459229,0.644691,-0.045287,-0.749424,-0.143832
28266,,9.680532,1.550411,-1.273821,0.007369,0.021401,-0.017154,0.832275,0.317871,-0.459229,0.644695,-0.045281,-0.749418,-0.143840
28267,,9.690583,1.575473,-1.223444,0.008300,0.024089,-0.019591,0.841309,0.320313,-0.463623,0.644708,-0.045266,-0.749405,-0.143856
28268,,9.668443,1.574463,-1.264749,0.006873,0.022450,-0.018148,0.838867,0.322510,-0.463867,0.644716,-0.045263,-0.749395,-0.143874
28269,,9.690572,1.578873,-1.219137,0.005823,0.024440,-0.017807,0.836670,0.320313,-0.463623,0.644730,-0.045263,-0.749379,-0.143893
28270,,9.673485,1.545796,-1.233605,-0.000215,0.019367,-0.022302,0.839111,0.322510,-0.468018,0.644722,-0.045269,-0.749375,-0.143951
28271,,9.681503,1.537396,-1.290072,0.006052,0.019981,-0.020363,0.836914,0.320313,-0.468018,0.644718,-0.045262,-0.749374,-0.143977
28272,,9.716727,1.499436,-1.276145,0.011864,0.021754,-0.021735,0.836914,0.318115,-0.461426,0.644722,-0.045219,-0.749373,-0.143979
28273,,9.720459,1.579126,-1.226291,0.014358,0.021406,-0.023527,0.832275,0.315674,-0.459229,0.644723,-0.045172,-0.749373,-0.143984
28274,,9.657046,1.584674,-1.274698,0.011372,0.022803,-0.022731,0.836426,0.326904,-0.463867,0.644731,-0.045131,-0.749367,-0.143994
28275,,9.681213,1.545581,-1.282442,0.010546,0.020332,-0.024943,0.829834,0.320068,-0.461670,0.644726,-0.045092,-0.749369,-0.144018
28276,,9.693010,1.614996,-1.290890,0.005069,0.022077,-0.022359,0.834229,0.324707,-0.466064,0.644728,-0.045076,-0.749361,-0.144056
28277,,9.699160,1.562708,-1.288506,0.007461,0.021512,-0.019504,0.836670,0.322510,-0.468018,0.644731,-0.045066,-0.749356,-0.144074
28278,,9.699132,1.564514,-1.286523,0.009403,0.022105,-0.019962,0.832275,0.320068,-0.455078,0.644737,-0.045039,-0.749351,-0.144081
28279,,9.686947,1.586938,-1.279730,0.007470,0.021513,-0.019509,0.843506,0.324707,-0.461670,0.644739,-0.045029,-0.749346,-0.144100
28280,,9.686947,1.588569,-1.277706,0.008804,0.022937,-0.016311,0.832275,0.317871,-0.470215,0.644749,-0.045042,-0.749333,-0.144118
28281,,9.697964,1.591391,-1.254074,0.004552,0.018123,-0.014294,0.839111,0.318115,-0.457031,0.644742,-0.045063,-0.749336,-0.144129
28282,,9.668897,1.578372,-1.263945,0.000558,0.021614,-0.015483,0.838867,0.326904,-0.461670,0.644749,-0.045080,-0.749325,-0.144152
28283,,9.704260,1.540180,-1.249579,0.001498,0.024304,-0.017925,0.838867,0.324707,-0.463867,0.644762,-0.045093,-0.749306,-0.144188
28284,,9.694486,1.518364,-1.295721,0.009374,0.021999,-0.017649,0.834229,0.324707,-0.459473,0.644766,-0.045095,-0.749298,-0.144206
28285,,9.673976,1.551153,-1.230754,0.010489,0.020120,-0.020315,0.838867,0.322510,-0.457275,0.644764,-0.045074,-0.749300,-0.144215
28286,,9.681032,1.564604,-1.260554,0.008937,0.023156,-0.020971,0.832031,0.324463,-0.466064,0.644771,-0.045067,-0.749288,-0.144247
28287,,9.679756,1.588489,-1.232124,0.002744,0.017746,-0.018499,0.834717,0.318115,-0.468018,0.644759,-0.045079,-0.749291,-0.144279
28288,,9.704092,1.549124,-1.239787,0.008945,0.023157,-0.020976,0.834229,0.324707,-0.468262,0.644769,-0.045039,-0.749284,-0.144283
28289,,9.693096,1.549526,-1.259529,0.005572,0.020921,-0.019075,0.836670,0.322510,-0.470215,0.644770,-0.045038,-0.749279,-0.144307
28290,,9.717003,1.597954,-1.272878,0.004694,0.018340,-0.018960,0.836426,0.326904,-0.461914,0.644761,-0.045025,-0.749284,-0.144322
28291,,9.693002,1.553021,-1.255937,0.014335,0.021204,-0.018912,0.839355,0.313721,-0.467773,0.644765,-0.044995,-0.749285,-0.144313
28292,,9.669791,1.573929,-1.271115,0.006141,0.019981,-0.020414,0.836670,0.322510,-0.459473,0.644762,-0.044981,-0.749284,-0.144334
28293,,9.692923,1.556485,-1.252254,0.007967,0.020361,-0.016220,0.829834,0.324463,-0.463867,0.644763,-0.044983,-0.749282,-0.144339
28294,,9.698759,1.591738,-1.255568,0.005591,0.020921,-0.019087,0.832031,0.322266,-0.463867,0.644763,-0.044980,-0.749277,-0.144365
28295,,9.663840,1.545523,-1.260211,0.001276,0.020886,-0.021500,0.834473,0.322510,-0.468018,0.644761,-0.044983,-0.749270,-0.144412
28296,,9.705050,1.541304,-1.251122,0.003100,0.021266,-0.017305,0.836670,0.324707,-0.468262,0.644765,-0.044981,-0.749263,-0.144430
28297,,9.710867,1.576767,-1.254214,0.008485,0.024208,-0.021991,0.836914,0.315918,-0.463623,0.644776,-0.044957,-0.749251,-0.144453
28298,,9.699920,1.577377,-1.273611,0.000616,0.026502,-0.022284,0.838867,0.324707,-0.459473,0.644796,-0.044943,-0.749226,-0.144497
28299,,9.674591,1.555185,-1.229551,-0.001519,0.022599,-0.027698,0.836670,0.320313,-0.463623,0.644794,-0.044931,-0.749213,-0.144576
28300,,9.700309,1.494628,-1.263467,0.010242,0.021500,-0.028316,0.836670,0.322510,-0.463867,0.644791,-0.044884,-0.749210,-0.144617
28301,,9.677715,1.582119,-1.310688,0.004812,0.023340,-0.028072,0.841553,0.318115,-0.463623,0.644794,-0.044849,-0.749199,-0.144673
28302,,9.707213,1.511463,-1.291069,0.018516,0.022841,-0.029142,0.839111,0.320313,-0.461670,0.644798,-0.044763,-0.749199,-0.144679
28303,,9.692684,1.644448,-1.263718,0.013198,0.020004,-0.026790,0.831787,0.329102,-0.464111,0.644791,-0.044708,-0.749204,-0.144699
28304,,9.710616,1.659801,-1.271745,0.007140,0.022675,-0.022889,0.834473,0.322510,-0.461670,0.644796,-0.044686,-0.749196,-0.144732
28305,,9.668606,1.602153,-1.244593,-0.001117,0.021332,-0.022074,0.836670,0.320313,-0.465820,0.644794,-0.044695,-0.749185,-0.144791
28306,,9.680823,1.583518,-1.247462,-0.003009,0.015951,-0.017184,0.836426,0.326904,-0.461914,0.644777,-0.044723,-0.749190,-0.144833
28307,,9.694536,1.542559,-1.276755,0.004021,0.023851,-0.017453,0.838867,0.324707,-0.463867,0.644789,-0.044730,-0.749175,-0.144858
28308,,9.712593,1.557438,-1.284595,0.010093,0.021183,-0.021357,0.832031,0.324463,-0.466064,0.644789,-0.044711,-0.749172,-0.144880
28309,,9.703884,1.569784,-1.224470,0.010031,0.021077,-0.019032,0.836670,0.322510,-0.457275,0.644791,-0.044695,-0.749170,-0.144887
28310,,9.700203,1.581540,-1.276120,0.010035,0.021077,-0.019034,0.834229,0.326904,-0.461914,0.644793,-0.044677,-0.749167,-0.144894
28311,,9.700152,1.583351,-1.274257,0.006222,0.019987,-0.020458,0.834473,0.320313,-0.465820,0.644789,-0.044669,-0.749166,-0.144920
28312,,9.662481,1.581012,-1.226144,0.002274,0.018683,-0.017227,0.836670,0.320313,-0.459473,0.644782,-0.044679,-0.749166,-0.144945
28313,,9.694298,1.553315,-1.265468,0.006794,0.019048,-0.021792,0.836670,0.322510,-0.463867,0.644774,-0.044664,-0.749169,-0.144972
28314,,9.692697,1.577427,-1.237231,0.006798,0.019048,-0.021795,0.834473,0.322510,-0.466064,0.644767,-0.044648,-0.749171,-0.144999
28315,,9.687527,1.611391,-1.262365,0.008994,0.023065,-0.018712,0.834473,0.322510,-0.459473,0.644776,-0.044635,-0.749162,-0.145010
28316,,9.683309,1.557293,-1.281727,0.006667,0.018836,-0.017143,0.831787,0.329102,-0.459717,0.644771,-0.044632,-0.749165,-0.145018
28317,,9.681750,1.580990,-1.253489,0.002290,0.018682,-0.017238,0.838867,0.326904,-0.468262,0.644764,-0.044649,-0.749164,-0.145048
28318,,9.694054,1.562187,-1.256384,0.008687,0.019543,-0.019927,0.836670,0.324707,-0.466064,0.644758,-0.044637,-0.749166,-0.145067
28319,,9.686757,1.552330,-1.222912,0.016888,0.020791,-0.018411,0.834717,0.315674,-0.463623,0.644761,-0.044601,-0.749170,-0.145046
28320,,9.699690,1.599078,-1.258036,0.011946,0.021576,-0.017178,0.831787,0.329102,-0.459717,0.644769,-0.044571,-0.749168,-0.145028
28321,,9.698118,1.622643,-1.229709,0.012444,0.020531,-0.016181,0.836670,0.322510,-0.463867,0.644772,-0.044558,-0.749169,-0.145017
28322,,9.698138,1.624041,-1.227710,0.010327,0.024500,-0.015523,0.832031,0.326660,-0.463867,0.644789,-0.044554,-0.749155,-0.145016
28323,,9.670888,1.588609,-1.264180,0.008564,0.019330,-0.015281,0.832031,0.322266,-0.459473,0.644786,-0.044558,-0.749157,-0.145016
28324,,9.665210,1.556380,-1.257148,0.008074,0.020375,-0.016283,0.836914,0.318115,-0.461426,0.644788,-0.044554,-0.749155,-0.145019
28325,,9.708055,1.529965,-1.274381,0.013911,0.022178,-0.017641,0.838867,0.322510,-0.463867,0.644796,-0.044530,-0.749152,-0.145007
28326,,9.688918,1.606231,-1.268636,0.019926,0.019412,-0.019205,0.836426,0.326904,-0.470459,0.644795,-0.044478,-0.749162,-0.144974
28327,,9.692372,1.597826,-1.213367,0.016358,0.021735,-0.017098,0.836670,0.320313,-0.461670,0.644802,-0.044448,-0.749162,-0.144951
28328,,9.683212,1.575609,-1.259895,0.014985,0.020194,-0.017978,0.836670,0.320313,-0.461670,0.644804,-0.044411,-0.749167,-0.144929
28329,,9.676463,1.631137,-1.258820,0.010456,0.019826,-0.013418,0.836670,0.324707,-0.466064,0.644805,-0.044416,-0.749168,-0.144916
28330,,9.688917,1.611892,-1.261441,0.010358,0.024501,-0.015546,0.836670,0.324707,-0.461670,0.644824,-0.044403,-0.749155,-0.144907
28331,,9.675976,1.568031,-1.222674,0.006255,0.015098,-0.013723,0.836670,0.324707,-0.459473,0.644806,-0.044424,-0.749168,-0.144910
28332,,9.672553,1.579143,-1.274573,0.011350,0.022413,-0.013548,0.834229,0.324707,-0.461670,0.644817,-0.044431,-0.749160,-0.144903
28333,,9.706485,1.563373,-1.233443,0.009638,0.022125,-0.020089,0.834473,0.318115,-0.463623,0.644822,-0.044411,-0.749154,-0.144915
28334,,9.695726,1.563338,-1.253437,0.016880,0.020695,-0.016110,0.829590,0.324463,-0.459473,0.644827,-0.044376,-0.749158,-0.144881
28335,,9.690608,1.596801,-1.278862,0.013069,0.019595,-0.017540,0.838867,0.324707,-0.466064,0.644826,-0.044357,-0.749163,-0.144871
28336,,9.719367,1.613195,-1.265083,0.006250,0.019875,-0.018192,0.838867,0.326904,-0.466064,0.644823,-0.044354,-0.749162,-0.144889
28337,,9.679307,1.532563,-1.264930,0.016499,0.017067,-0.014988,0.839355,0.315918,-0.459229,0.644814,-0.044335,-0.749176,-0.144857
28338,,9.687093,1.645376,-1.221183,0.009599,0.017243,-0.013310,0.834229,0.324707,-0.459473,0.644807,-0.044345,-0.749184,-0.144847
28339,,9.681521,1.612701,-1.214246,0.005943,0.019460,-0.008876,0.838867,0.324707,-0.466064,0.644809,-0.044381,-0.749182,-0.144837
28340,,9.685054,1.569356,-1.265354,0.006595,0.018623,-0.012536,0.836670,0.324707,-0.463867,0.644806,-0.044404,-0.749183,-0.144838
28341,,9.695786,1.572182,-1.241855,0.003274,0.016478,-0.012963,0.836670,0.322510,-0.463867,0.644793,-0.044436,-0.749190,-0.144850
28342,,9.690183,1.539762,-1.234991,0.007171,0.017684,-0.013867,0.836670,0.322510,-0.463867,0.644786,-0.044448,-0.749196,-0.144849
28343,,9.685103,1.572972,-1.260482,0.010498,0.019831,-0.013442,0.841309,0.324707,-0.466064,0.644788,-0.044452,-0.749197,-0.144836
28344,,9.695819,1.575980,-1.236771,0.012040,0.021581,-0.017230,0.836670,0.322510,-0.463867,0.644793,-0.044434,-0.749194,-0.144829
28345,,9.685105,1.575865,-1.256845,0.006771,0.018831,-0.017207,0.841309,0.322510,-0.463867,0.644788,-0.044437,-0.749196,-0.144842
28346,,9.672583,1.597835,-1.250828,0.006869,0.014158,-0.015074,0.832031,0.322266,-0.459473,0.644766,-0.044451,-0.749213,-0.144847
28347,,9.695709,1.580496,-1.231859,0.007663,0.021418,-0.017338,0.836670,0.320313,-0.465820,0.644770,-0.044448,-0.749207,-0.144858
28348,,9.717354,1.550822,-1.292756,0.009709,0.017349,-0.015655,0.829590,0.328857,-0.461914,0.644762,-0.044441,-0.749217,-0.144848
28349,,9.684961,1.581775,-1.250517,0.012234,0.017014,-0.017434,0.834473,0.322510,-0.463867,0.644751,-0.044426,-0.749229,-0.144841
28350,,9.674224,1.581647,-1.270943,0.005901,0.016244,-0.017089,0.834229,0.324707,-0.466064,0.644735,-0.044429,-0.749240,-0.144854
28351,,9.676008,1.560864,-1.295938,0.012646,0.015869,-0.014101,0.836670,0.322510,-0.463867,0.644721,-0.044427,-0.749255,-0.144834
28352,,9.661638,1.604982,-1.263546,0.009315,0.018495,-0.018999,0.829834,0.324463,-0.461670,0.644714,-0.044407,-0.749262,-0.144838
28353,,9.695409,1.589462,-1.222655,0.011673,0.017955,-0.016114,0.837158,0.313721,-0.459229,0.644707,-0.044399,-0.749270,-0.144829
28354,,9.656015,1.574342,-1.254946,-0.000112,0.018998,-0.015553,0.836670,0.322510,-0.461670,0.644703,-0.044424,-0.749267,-0.144856
28355,,9.711569,1.527790,-1.276409,0.004449,0.019371,-0.020114,0.836670,0.324707,-0.459473,0.644697,-0.044423,-0.749266,-0.144887
28356,,9.680922,1.536960,-1.260419,0.011854,0.018162,-0.020783,0.834229,0.324707,-0.463867,0.644687,-0.044404,-0.749274,-0.144900
28357,,9.695110,1.596392,-1.215973,0.012922,0.016180,-0.021106,0.832031,0.324463,-0.461670,0.644670,-0.044374,-0.749290,-0.144902
28358,,9.693635,1.585893,-1.294571,0.010487,0.016617,-0.021664,0.834473,0.320313,-0.461670,0.644653,-0.044346,-0.749304,-0.144913
28359,,9.673570,1.596843,-1.256840,0.009428,0.018600,-0.021346,0.839111,0.318115,-0.463623,0.644644,-0.044325,-0.749309,-0.144929
28360,,9.671590,1.620748,-1.228833,0.007306,0.017790,-0.016232,0.834229,0.324707,-0.459473,0.644637,-0.044324,-0.749315,-0.144931
28361,,9.673428,1.600226,-1.253628,0.011874,0.018164,-0.020793,0.836670,0.324707,-0.461670,0.644627,-0.044298,-0.749324,-0.144936
28362,,9.685913,1.581552,-1.256279,-0.001068,0.021078,-0.017586,0.836426,0.326904,-0.468262,0.644627,-0.044330,-0.749312,-0.144987
28363,,9.667791,1.570136,-1.244793,0.010996,0.015578,-0.020666,0.838867,0.324707,-0.463867,0.644608,-0.044309,-0.749329,-0.144995
28364,,9.708908,1.566400,-1.235659,0.005456,0.017286,-0.018123,0.836426,0.329102,-0.466309,0.644595,-0.044311,-0.749336,-0.145015
28365,,9.678198,1.575435,-1.219941,0.012955,0.016185,-0.021119,0.834229,0.324707,-0.472656,0.644578,-0.044281,-0.749352,-0.145016
28366,,9.662349,1.607483,-1.267654,0.011894,0.018167,-0.020803,0.831787,0.329102,-0.466309,0.644569,-0.044239,-0.749364,-0.145011
28367,,9.687374,1.568325,-1.275215,0.010034,0.012888,-0.018209,0.836670,0.322510,-0.463867,0.644540,-0.044232,-0.749388,-0.145013
28368,,9.694715,1.581484,-1.305643,0.012388,0.017126,-0.019799,0.825195,0.322266,-0.463867,0.644528,-0.044202,-0.749401,-0.145010
28369,,9.674611,1.592180,-1.267975,0.013766,0.018674,-0.018925,0.834473,0.322510,-0.461670,0.644522,-0.044176,-0.749410,-0.145002
28370,,9.703159,1.608912,-1.254277,0.008006,0.016952,-0.019913,0.832031,0.322266,-0.463867,0.644509,-0.044153,-0.749421,-0.145008
28371,,9.712547,1.599854,-1.310734,0.004899,0.018224,-0.016813,0.834229,0.324707,-0.468262,0.644500,-0.044164,-0.749424,-0.145027
28372,,9.676436,1.574888,-1.289561,0.011732,0.017967,-0.016146,0.838867,0.324707,-0.466064,0.644495,-0.044140,-0.749434,-0.145006
28373,,9.705028,1.591342,-1.275821,0.007344,0.017792,-0.016258,0.843506,0.322510,-0.466064,0.644486,-0.044145,-0.749440,-0.145013
28374,,9.688981,1.557510,-1.290655,0.001984,0.019698,-0.018387,0.829590,0.326660,-0.457520,0.644482,-0.044159,-0.749436,-0.145049
28375,,9.681779,1.613281,-1.289816,0.004912,0.018225,-0.016820,0.836670,0.322510,-0.461670,0.644473,-0.044170,-0.749439,-0.145067
28376,,9.674248,1.603436,-1.256507,0.001589,0.016067,-0.017249,0.834229,0.326904,-0.463867,0.644455,-0.044198,-0.749445,-0.145106
28377,,9.668765,1.571359,-1.249558,0.002964,0.017616,-0.016374,0.834229,0.324707,-0.466064,0.644445,-0.044217,-0.749448,-0.145130
28378,,9.686767,1.586168,-1.257632,0.006873,0.018835,-0.017274,0.834229,0.324707,-0.466064,0.644439,-0.044214,-0.749452,-0.145140
28379,,9.686700,1.587792,-1.256097,0.012915,0.016093,-0.018806,0.832275,0.320068,-0.468018,0.644423,-0.044193,-0.749468,-0.145135
28380,,9.663445,1.607999,-1.272273,0.008431,0.015814,-0.016584,0.834229,0.324707,-0.468262,0.644409,-0.044175,-0.749483,-0.145122
28381,,9.688641,1.568748,-1.279552,0.007464,0.017895,-0.018606,0.836670,0.322510,-0.466064,0.644399,-0.044171,-0.749489,-0.145137
28382,,9.693995,1.604029,-1.283290,0.009324,0.018405,-0.016721,0.834229,0.324707,-0.468262,0.644394,-0.044154,-0.749497,-0.145128
28383,,9.703551,1.594881,-1.339670,0.003078,0.017716,-0.018722,0.836670,0.320313,-0.461670,0.644382,-0.044164,-0.749500,-0.145159
28384,,9.672546,1.538229,-1.291348,0.004632,0.014695,-0.018029,0.832031,0.322266,-0.463867,0.644361,-0.044165,-0.749515,-0.145174
28385,,9.706404,1.588778,-1.283018,0.015875,0.019398,-0.021733,0.834229,0.324707,-0.463867,0.644356,-0.044121,-0.749523,-0.145168
28386,,9.698809,1.579186,-1.249655,0.005042,0.018326,-0.019178,0.829834,0.324463,-0.470459,0.644347,-0.044114,-0.749527,-0.145188
28387,,9.670416,1.631332,-1.292971,0.007968,0.016856,-0.017606,0.832275,0.320068,-0.461670,0.644334,-0.044113,-0.749537,-0.145197
28388,,9.673339,1.623353,-1.237789,0.003578,0.016675,-0.017722,0.831787,0.329102,-0.464111,0.644321,-0.044105,-0.749547,-0.145206
28389,,9.664907,1.601013,-1.284448,0.005052,0.018326,-0.019183,0.829834,0.322266,-0.459473,0.644312,-0.044106,-0.749550,-0.145231
28390,,9.667832,1.593093,-1.229091,0.006910,0.018837,-0.017297,0.829590,0.328857,-0.459717,0.644306,-0.044106,-0.749553,-0.145244
28391,,9.659447,1.570703,-1.275672,0.005059,0.018326,-0.019187,0.836914,0.320313,-0.468018,0.644296,-0.044108,-0.749556,-0.145270
28392,,9.708102,1.578861,-1.297657,0.014455,0.022524,-0.024779,0.829590,0.326660,-0.466064,0.644301,-0.044049,-0.749554,-0.145275
28393,,9.684828,1.599335,-1.313650,0.009056,0.014879,-0.017930,0.832031,0.322266,-0.466064,0.644280,-0.044044,-0.749571,-0.145281
28394,,9.707945,1.582511,-1.294380,0.009868,0.022141,-0.020227,0.832031,0.324463,-0.461670,0.644287,-0.044005,-0.749568,-0.145279
28395,,9.635915,1.596868,-1.286540,0.006829,0.015506,-0.023172,0.834473,0.318115,-0.465820,0.644264,-0.043988,-0.749583,-0.145310
28396,,9.691883,1.551118,-1.307854,0.017094,0.017529,-0.024401,0.834473,0.320313,-0.465820,0.644252,-0.043921,-0.749599,-0.145297
28397,,9.697751,1.599571,-1.231810,0.014558,0.017857,-0.022632,0.834473,0.322510,-0.468018,0.644240,-0.043879,-0.749611,-0.145298
28398,,9.661729,1.640390,-1.243637,0.016415,0.018371,-0.020745,0.832031,0.326660,-0.459717,0.644235,-0.043819,-0.749625,-0.145270
28399,,9.663903,1.619848,-1.268283,0.012809,0.020677,-0.018664,0.836670,0.324707,-0.466064,0.644236,-0.043796,-0.749626,-0.145265
28400,,9.684149,1.612463,-1.302564,0.011339,0.019025,-0.017205,0.832031,0.324463,-0.463867,0.644232,-0.043786,-0.749631,-0.145264
28401,,9.689284,1.582146,-1.273542,0.015738,0.019213,-0.017089,0.836670,0.324707,-0.461670,0.644229,-0.043760,-0.749639,-0.145243
28402,,9.671208,1.570295,-1.262455,0.013967,0.014029,-0.016817,0.836670,0.324707,-0.461670,0.644208,-0.043745,-0.749661,-0.145228
28403,,9.676431,1.605468,-1.266471,0.011350,0.019025,-0.017212,0.829834,0.320068,-0.472412,0.644203,-0.043733,-0.749666,-0.145224
28404,,9.686239,1.596153,-1.322963,0.017407,0.016296,-0.018730,0.832031,0.324463,-0.461670,0.644191,-0.043679,-0.749687,-0.145185
28405,,9.665825,1.606892,-1.285508,0.009612,0.018608,-0.021446,0.834473,0.320313,-0.465820,0.644182,-0.043657,-0.749693,-0.145201
28406,,9.665756,1.608626,-1.283858,0.011360,0.019026,-0.017219,0.845703,0.329346,-0.470459,0.644179,-0.043637,-0.749699,-0.145191
28407,,9.683721,1.623573,-1.291902,0.011471,0.019124,-0.019560,0.838623,0.329102,-0.466309,0.644174,-0.043616,-0.749704,-0.145193
28408,,9.678394,1.591620,-1.284820,0.009518,0.018510,-0.019114,0.834229,0.324707,-0.457275,0.644165,-0.043608,-0.749709,-0.145209
28409,,9.691092,1.573049,-1.287364,0.012957,0.020778,-0.021027,0.830078,0.317871,-0.468018,0.644165,-0.043575,-0.749711,-0.145211
28410,,9.696289,1.608471,-1.291037,0.006978,0.018836,-0.017348,0.834229,0.329102,-0.464111,0.644161,-0.043569,-0.749714,-0.145217
28411,,9.690981,1.576511,-1.283957,0.012078,0.018186,-0.020892,0.838867,0.326904,-0.463867,0.644151,-0.043542,-0.749723,-0.145222
28412,,9.688514,1.600628,-1.256187,0.012562,0.017148,-0.019879,0.838867,0.322510,-0.459473,0.644137,-0.043525,-0.749735,-0.145229
28413,,9.683250,1.634148,-1.282055,0.013455,0.019742,-0.020021,0.836670,0.324707,-0.470459,0.644134,-0.043495,-0.749740,-0.145226
28414,,9.683204,1.635914,-1.280155,0.003001,0.022273,-0.018635,0.834229,0.326904,-0.461914,0.644139,-0.043502,-0.749728,-0.145258
28415,,9.675124,1.547989,-1.293603,0.013464,0.019744,-0.020025,0.834473,0.320313,-0.465820,0.644136,-0.043472,-0.749733,-0.145255
28416,,9.688290,1.673122,-1.282043,0.009549,0.018512,-0.019132,0.834229,0.324707,-0.463867,0.644129,-0.043455,-0.749739,-0.145261
28417,,9.669866,1.583008,-1.317733,0.004931,0.018123,-0.014577,0.834229,0.326904,-0.463867,0.644122,-0.043474,-0.749742,-0.145273
28418,,9.695837,1.622021,-1.277406,0.016693,0.021821,-0.017262,0.838867,0.324707,-0.461670,0.644129,-0.043442,-0.749742,-0.145250
28419,,9.677788,1.610308,-1.265959,0.005162,0.018316,-0.019261,0.832031,0.322266,-0.466064,0.644120,-0.043443,-0.749745,-0.145276
28420,,9.664929,1.632300,-1.259978,0.008381,0.020393,-0.016494,0.827393,0.326660,-0.463867,0.644121,-0.043441,-0.749743,-0.145279
28421,,9.649347,1.598154,-1.274792,0.003096,0.017603,-0.016478,0.829590,0.326660,-0.463867,0.644110,-0.043459,-0.749747,-0.145303
28422,,9.687831,1.604077,-1.318385,0.001845,0.024152,-0.016011,0.834473,0.322510,-0.466064,0.644125,-0.043468,-0.749730,-0.145326
28423,,9.662185,1.581007,-1.274913,0.006067,0.020912,-0.019410,0.834473,0.322510,-0.468018,0.644125,-0.043463,-0.749725,-0.145349
28424,,9.713685,1.579713,-1.242891,0.002628,0.018640,-0.017501,0.836670,0.324707,-0.466064,0.644119,-0.043462,-0.749727,-0.145364
28425,,9.690435,1.600052,-1.258710,0.011116,0.024936,-0.025131,0.829834,0.324463,-0.466064,0.644131,-0.043417,-0.749715,-0.145387
28426,,9.690320,1.602259,-1.256788,0.014221,0.018909,-0.023707,0.832031,0.324463,-0.466064,0.644124,-0.043359,-0.749725,-0.145383
28427,,9.690197,1.669644,-1.287957,0.010005,0.022148,-0.020314,0.836670,0.324707,-0.466064,0.644129,-0.043337,-0.749720,-0.145395
28428,,9.659320,1.612971,-1.239253,0.006565,0.019876,-0.018405,0.834229,0.324707,-0.466064,0.644127,-0.043325,-0.749720,-0.145405
28429,,9.687481,1.617127,-1.304946,0.004130,0.020294,-0.018980,0.834473,0.322510,-0.470215,0.644125,-0.043329,-0.749716,-0.145433
28430,,9.682336,1.585056,-1.297501,0.007344,0.022375,-0.016211,0.827393,0.324463,-0.459473,0.644135,-0.043312,-0.749710,-0.145425
28431,,9.710649,1.602132,-1.283065,0.005622,0.021949,-0.020450,0.832031,0.324463,-0.461670,0.644139,-0.043304,-0.749702,-0.145454
28432,,9.661745,1.597483,-1.257591,0.003546,0.021234,-0.017664,0.827148,0.331055,-0.464111,0.644141,-0.043313,-0.749694,-0.145481
28433,,9.682286,1.590248,-1.291505,0.002183,0.019676,-0.018543,0.834229,0.326904,-0.468262,0.644136,-0.043325,-0.749691,-0.145516
28434,,9.661648,1.600977,-1.253885,0.005221,0.018319,-0.019293,0.829590,0.326660,-0.466064,0.644127,-0.043313,-0.749696,-0.145533
28435,,9.682208,1.593784,-1.287732,0.008371,0.025070,-0.018706,0.832031,0.324463,-0.463867,0.644144,-0.043301,-0.749680,-0.145546
28436,,9.677001,1.627289,-1.313180,0.008679,0.020595,-0.021208,0.829834,0.324463,-0.468262,0.644143,-0.043268,-0.749681,-0.145556
28437,,9.669228,1.617790,-1.279617,0.006124,0.020915,-0.019444,0.832031,0.322266,-0.470215,0.644143,-0.043263,-0.749677,-0.145579
28438,,9.669177,1.619669,-1.277628,-0.000712,0.021127,-0.020150,0.831787,0.329102,-0.464111,0.644145,-0.043245,-0.749671,-0.145603
28439,,9.664014,1.588006,-1.270105,0.005778,0.022049,-0.022810,0.836670,0.320313,-0.463623,0.644147,-0.043228,-0.749663,-0.145638
28440,,9.681947,1.603290,-1.277851,-0.001241,0.017399,-0.016648,0.838867,0.326904,-0.461670,0.644135,-0.043256,-0.749665,-0.145676
28441,,9.723057,1.600342,-1.267659,-0.000577,0.021224,-0.022500,0.836670,0.322510,-0.461670,0.644133,-0.043261,-0.749655,-0.145734
28442,,9.681782,1.607208,-1.274180,0.008289,0.016968,-0.020053,0.836426,0.331299,-0.459717,0.644118,-0.043261,-0.749663,-0.145759
28443,,9.663644,1.595826,-1.263099,0.002650,0.015298,-0.023406,0.829834,0.322266,-0.468262,0.644093,-0.043256,-0.749676,-0.145806
28444,,9.702148,1.602427,-1.307063,0.010858,0.016651,-0.021823,0.829834,0.322266,-0.463867,0.644077,-0.043226,-0.749689,-0.145816
28445,,9.671105,1.611209,-1.291845,0.010263,0.017591,-0.020504,0.834229,0.326904,-0.466064,0.644065,-0.043206,-0.749699,-0.145826
28446,,9.686306,1.648873,-1.273568,0.008719,0.020602,-0.021229,0.836426,0.331299,-0.464111,0.644064,-0.043173,-0.749700,-0.145835
28447,,9.670934,1.615133,-1.288220,0.003848,0.021429,-0.022386,0.834229,0.326904,-0.468262,0.644064,-0.043164,-0.749693,-0.145876
28448,,9.670851,1.617143,-1.286318,0.004800,0.019359,-0.020344,0.832031,0.322266,-0.470215,0.644057,-0.043157,-0.749693,-0.145905
28449,,9.693804,1.666131,-1.299564,0.002240,0.019676,-0.018580,0.838867,0.326904,-0.466064,0.644052,-0.043169,-0.749690,-0.145939
28450,,9.680947,1.622814,-1.260665,0.001353,0.017079,-0.018437,0.831787,0.331299,-0.466309,0.644040,-0.043168,-0.749696,-0.145961
28451,,9.657728,1.642626,-1.276828,0.003483,0.021143,-0.015363,0.836426,0.326904,-0.468262,0.644043,-0.043187,-0.749689,-0.145980
28452,,9.639745,1.630638,-1.265350,0.006525,0.019792,-0.016107,0.836426,0.329102,-0.459717,0.644042,-0.043182,-0.749689,-0.145983
28453,,9.667927,1.647602,-1.251092,0.000634,0.017923,-0.014777,0.841064,0.329102,-0.468262,0.644033,-0.043215,-0.749689,-0.146011
28454,,9.693882,1.608397,-1.257515,0.006402,0.019697,-0.013766,0.832031,0.324463,-0.466064,0.644032,-0.043242,-0.749687,-0.146025
28455,,9.655502,1.592146,-1.290311,0.004569,0.019169,-0.015668,0.836426,0.326904,-0.466064,0.644028,-0.043257,-0.749686,-0.146041
28456,,9.727624,1.582088,-1.293822,0.011542,0.019066,-0.017299,0.832031,0.326660,-0.463867,0.644025,-0.043233,-0.749693,-0.146027
28457,,9.704416,1.601747,-1.310211,0.012018,0.018031,-0.016277,0.829590,0.326660,-0.466064,0.644018,-0.043223,-0.749701,-0.146017
28458,,9.660397,1.630431,-1.290867,0.005311,0.018325,-0.019340,0.831787,0.331299,-0.466309,0.644009,-0.043209,-0.749706,-0.146032
28459,,9.683547,1.613927,-1.270974,0.001069,0.021554,-0.015961,0.834229,0.326904,-0.468262,0.644013,-0.043233,-0.749695,-0.146063
28460,,9.655353,1.600090,-1.281571,0.004846,0.019361,-0.020368,0.834229,0.326904,-0.470459,0.644007,-0.043216,-0.749698,-0.146083
28461,,9.660265,1.635648,-1.285237,0.002281,0.019676,-0.018606,0.836426,0.329102,-0.461914,0.644003,-0.043228,-0.749694,-0.146118
28462,,9.673209,1.617302,-1.287390,0.008314,0.021645,-0.022283,0.836426,0.326904,-0.466064,0.644004,-0.043198,-0.749691,-0.146137
28463,,9.696310,1.601081,-1.267527,0.005330,0.018327,-0.019350,0.834473,0.322510,-0.466064,0.643995,-0.043197,-0.749694,-0.146162
28464,,9.652221,1.629967,-1.248004,0.005753,0.021961,-0.020524,0.829590,0.328857,-0.464111,0.643999,-0.043178,-0.749688,-0.146181
28465,,9.699052,1.582555,-1.289842,0.004396,0.020397,-0.021404,0.836426,0.329102,-0.464111,0.643996,-0.043172,-0.749684,-0.146216
28466,,9.672885,1.625007,-1.280099,0.015358,0.016883,-0.021717,0.831787,0.329102,-0.468262,0.643981,-0.043129,-0.749701,-0.146210
28467,,9.690720,1.640482,-1.288181,0.010488,0.017701,-0.022885,0.836426,0.329102,-0.464111,0.643968,-0.043099,-0.749710,-0.146227
28468,,9.659603,1.649190,-1.272854,0.008207,0.021552,-0.019953,0.838867,0.326904,-0.461670,0.643970,-0.043077,-0.749707,-0.146239
28469,,9.659552,1.650917,-1.271001,0.011119,0.020110,-0.018346,0.834229,0.329102,-0.466309,0.643969,-0.043060,-0.749709,-0.146240
28470,,9.667616,1.598689,-1.267770,0.009291,0.019580,-0.020252,0.834229,0.329102,-0.466309,0.643964,-0.043047,-0.749711,-0.146257
28471,,9.675370,1.611929,-1.297752,0.005966,0.017388,-0.020689,0.836426,0.329102,-0.464111,0.643950,-0.043041,-0.749718,-0.146284
28472,,9.667435,1.602314,-1.264573,0.014643,0.017732,-0.018062,0.836670,0.324707,-0.466064,0.643941,-0.043014,-0.749730,-0.146270
28473,,9.664418,1.626304,-1.236911,0.014178,0.018766,-0.019091,0.829834,0.324463,-0.466064,0.643935,-0.042986,-0.749738,-0.146261
28474,,9.672164,1.639443,-1.267076,0.015396,0.016888,-0.021733,0.832031,0.322266,-0.466064,0.643922,-0.042930,-0.749756,-0.146242
28475,,9.672109,1.640954,-1.265536,0.015272,0.020144,-0.013526,0.834473,0.320313,-0.465820,0.643926,-0.042918,-0.749760,-0.146211
28476,,9.708025,1.669338,-1.282979,0.010254,0.017512,-0.018213,0.832031,0.326660,-0.461914,0.643918,-0.042888,-0.749771,-0.146196
28477,,9.651845,1.639517,-1.306528,0.011011,0.020018,-0.016019,0.833984,0.333496,-0.464111,0.643918,-0.042880,-0.749773,-0.146189
28478,,9.660032,1.587066,-1.303255,0.007216,0.018858,-0.017483,0.832031,0.324463,-0.461670,0.643911,-0.042885,-0.749775,-0.146207
28479,,9.674966,1.624590,-1.284916,0.013126,0.020741,-0.018812,0.833984,0.333496,-0.459961,0.643913,-0.042860,-0.749776,-0.146202
28480,,9.671944,1.648541,-1.256905,0.005538,0.021770,-0.015877,0.834229,0.324707,-0.463867,0.643917,-0.042881,-0.749766,-0.146227
28481,,9.685021,1.629948,-1.258942,0.002353,0.019669,-0.018661,0.834229,0.324707,-0.463867,0.643912,-0.042892,-0.749763,-0.146261
28482,,9.686185,1.553120,-1.303702,0.008123,0.021460,-0.017642,0.834229,0.329102,-0.461914,0.643917,-0.042882,-0.749758,-0.146267
28483,,9.671824,1.653533,-1.251263,0.011783,0.019177,-0.019696,0.832031,0.326660,-0.459717,0.643912,-0.042859,-0.749764,-0.146269
28484,,9.669956,1.599047,-1.270158,0.011646,0.019084,-0.017351,0.832031,0.326660,-0.463867,0.643907,-0.042855,-0.749768,-0.146273
28485,,9.677826,1.611916,-1.300127,0.013619,0.019713,-0.017795,0.834229,0.324707,-0.466064,0.643905,-0.042833,-0.749772,-0.146262
28486,,9.684801,1.637973,-1.250185,0.017421,0.020877,-0.016333,0.834229,0.329102,-0.464111,0.643911,-0.042794,-0.749777,-0.146225
28487,,9.684790,1.639424,-1.248370,0.012551,0.021685,-0.017511,0.834229,0.329102,-0.461914,0.643917,-0.042775,-0.749774,-0.146218
28488,,9.636678,1.620695,-1.303507,0.013489,0.019620,-0.015454,0.827148,0.328857,-0.464111,0.643916,-0.042768,-0.749778,-0.146206
28489,,9.674739,1.639990,-1.266933,0.006036,0.020737,-0.014872,0.836426,0.326904,-0.466064,0.643919,-0.042780,-0.749773,-0.146214
28490,,9.677897,1.618853,-1.290944,0.012702,0.025133,-0.014004,0.831787,0.329102,-0.459717,0.643941,-0.042762,-0.749760,-0.146189
28491,,9.674845,1.642547,-1.262802,0.006044,0.020737,-0.014876,0.834229,0.326904,-0.468262,0.643943,-0.042774,-0.749756,-0.146198
28492,,9.701177,1.603444,-1.268684,0.013788,0.023163,-0.014296,0.834229,0.326904,-0.466064,0.643957,-0.042759,-0.749749,-0.146175
28493,,9.672849,1.654112,-1.312751,0.010927,0.019932,-0.013703,0.838867,0.326904,-0.468262,0.643959,-0.042761,-0.749750,-0.146161
28494,,9.679553,1.545355,-1.329699,0.005589,0.021769,-0.015914,0.834229,0.326904,-0.461914,0.643966,-0.042761,-0.749743,-0.146167
28495,,9.674957,1.647823,-1.255047,0.015918,0.023888,-0.017092,0.829834,0.324463,-0.466064,0.643981,-0.042731,-0.749736,-0.146146
28496,,9.696115,1.640313,-1.288515,0.011366,0.023567,-0.014895,0.834229,0.329102,-0.466309,0.643996,-0.042716,-0.749727,-0.146129
28497,,9.670249,1.616607,-1.245462,0.012766,0.020472,-0.011803,0.838867,0.326904,-0.466064,0.644002,-0.042719,-0.749727,-0.146102
28498,,9.665096,1.649194,-1.271419,0.014890,0.021195,-0.014595,0.836426,0.331299,-0.466309,0.644009,-0.042699,-0.749728,-0.146074
28499,,9.675144,1.652594,-1.247313,0.011230,0.023476,-0.012553,0.832031,0.326660,-0.459717,0.644025,-0.042702,-0.749718,-0.146056
28500,,9.686811,1.577294,-1.269587,0.007288,0.022214,-0.011673,0.831787,0.329102,-0.468262,0.644035,-0.042726,-0.749708,-0.146055
28501,,9.686493,1.643481,-1.301044,0.019165,0.021335,-0.012101,0.834229,0.329102,-0.468262,0.644044,-0.042707,-0.749710,-0.146006
28502,,9.686586,1.644389,-1.299203,0.016118,0.022675,-0.011378,0.833984,0.331299,-0.468506,0.644060,-0.042680,-0.749708,-0.145952
28503,,9.650774,1.618172,-1.278236,0.015044,0.024647,-0.011096,0.838623,0.329102,-0.468262,0.644082,-0.042675,-0.749697,-0.145915
28504,,9.658899,1.630309,-1.307884,0.010205,0.020783,-0.010060,0.829590,0.326660,-0.466064,0.644090,-0.042681,-0.749696,-0.145885
28505,,9.678919,1.635757,-1.261640,0.009744,0.021814,-0.011095,0.839111,0.320313,-0.470215,0.644101,-0.042695,-0.749689,-0.145868
28506,,9.679009,1.636814,-1.259581,0.008820,0.023877,-0.013163,0.829590,0.326660,-0.463867,0.644120,-0.042680,-0.749679,-0.145841
28507,,9.674358,1.604073,-1.251753,0.008058,0.024726,-0.009499,0.836426,0.329102,-0.468262,0.644142,-0.042703,-0.749662,-0.145826
28508,,9.679269,1.638629,-1.255210,0.009140,0.022755,-0.009784,0.834229,0.324707,-0.457275,0.644157,-0.042712,-0.749653,-0.145798
28509,,9.674623,1.605827,-1.247447,0.006242,0.024186,-0.011412,0.836670,0.324707,-0.461670,0.644176,-0.042734,-0.749637,-0.145795
28510,,9.678010,1.584315,-1.271386,0.014175,0.022049,-0.010950,0.831787,0.329102,-0.464111,0.644187,-0.042750,-0.749631,-0.145774
28511,,9.672938,1.616618,-1.297420,0.011306,0.018815,-0.010353,0.836670,0.324707,-0.470459,0.644187,-0.042764,-0.749635,-0.145748
28512,,9.669733,1.640062,-1.269538,0.013257,0.024111,-0.013022,0.838623,0.329102,-0.461914,0.644206,-0.042742,-0.749626,-0.145711
28513,,9.661752,1.629824,-1.235996,0.008874,0.019214,-0.010951,0.832031,0.322266,-0.463867,0.644207,-0.042761,-0.749628,-0.145696
28514,,9.709518,1.581642,-1.277313,0.011008,0.019936,-0.013743,0.832275,0.317871,-0.470215,0.644208,-0.042765,-0.749628,-0.145685
28515,,9.665161,1.609646,-1.258254,0.008393,0.024909,-0.014218,0.836670,0.322510,-0.461670,0.644228,-0.042769,-0.749612,-0.145683
28516,,9.668561,1.588396,-1.282116,0.011913,0.022540,-0.013906,0.832031,0.326660,-0.463867,0.644242,-0.042747,-0.749607,-0.145649
28517,,9.706358,1.607896,-1.245289,0.009198,0.019395,-0.015659,0.838867,0.326904,-0.466064,0.644240,-0.042747,-0.749609,-0.145648
28518,,9.701209,1.640757,-1.271236,0.007662,0.022396,-0.016416,0.834473,0.322510,-0.468018,0.644248,-0.042743,-0.749601,-0.145653
28519,,9.668632,1.592622,-1.276327,0.007666,0.022397,-0.016418,0.834229,0.324707,-0.468262,0.644257,-0.042743,-0.749593,-0.145660
28520,,9.658746,1.591770,-1.296740,0.003895,0.016557,-0.015661,0.836670,0.324707,-0.470459,0.644246,-0.042739,-0.749603,-0.145658
28521,,9.676697,1.607004,-1.304283,0.011324,0.024784,-0.020688,0.834473,0.320313,-0.463623,0.644260,-0.042710,-0.749590,-0.145666
28522,,9.668180,1.662429,-1.304148,0.014991,0.021208,-0.014635,0.836426,0.326904,-0.470459,0.644269,-0.042676,-0.749593,-0.145623
28523,,9.669962,1.654832,-1.248450,0.008141,0.021368,-0.015392,0.834229,0.324707,-0.463867,0.644275,-0.042679,-0.749588,-0.145626
28524,,9.663533,1.631372,-1.294596,0.007066,0.023338,-0.015116,0.832031,0.324463,-0.466064,0.644289,-0.042670,-0.749577,-0.145619
28525,,9.681980,1.581186,-1.268492,0.002215,0.019467,-0.014078,0.836426,0.326904,-0.461914,0.644287,-0.042699,-0.749574,-0.145639
28526,,9.686715,1.616184,-1.272343,0.011049,0.019943,-0.013762,0.829590,0.328857,-0.464111,0.644289,-0.042695,-0.749576,-0.145621
28527,,9.691853,1.586160,-1.242778,0.009854,0.018459,-0.016991,0.834473,0.322510,-0.470215,0.644282,-0.042689,-0.749581,-0.145622
28528,,9.686718,1.618935,-1.268818,0.007539,0.022310,-0.014087,0.829834,0.324463,-0.461670,0.644294,-0.042676,-0.749576,-0.145603
28529,,9.665294,1.629196,-1.231786,0.011399,0.015460,-0.016234,0.836670,0.322510,-0.470215,0.644277,-0.042670,-0.749592,-0.145595
28530,,9.684998,1.630533,-1.319401,0.002229,0.019466,-0.014090,0.827393,0.324463,-0.466064,0.644277,-0.042681,-0.749591,-0.145599
28531,,9.676860,1.620820,-1.285850,0.005893,0.021854,-0.018358,0.832031,0.324463,-0.461670,0.644281,-0.042680,-0.749583,-0.145620
28532,,9.662343,1.586399,-1.300423,0.001938,0.020585,-0.017483,0.836426,0.329102,-0.466309,0.644282,-0.042680,-0.749578,-0.145639
28533,,9.675629,1.567937,-1.302173,0.003921,0.021220,-0.017923,0.834229,0.324707,-0.468262,0.644284,-0.042688,-0.749571,-0.145666
28534,,9.685402,1.572131,-1.278022,0.009126,0.020611,-0.021430,0.834229,0.329102,-0.468262,0.644284,-0.042650,-0.749573,-0.145671
28535,,9.699777,1.610310,-1.259615,0.007315,0.020065,-0.023346,0.832031,0.322266,-0.461670,0.644278,-0.042628,-0.749573,-0.145702
28536,,9.658576,1.616633,-1.266903,0.011279,0.021337,-0.024225,0.834229,0.324707,-0.466064,0.644279,-0.042576,-0.749574,-0.145712
28537,,9.668250,1.621147,-1.242872,0.007782,0.019036,-0.022313,0.834229,0.329102,-0.466309,0.644270,-0.042556,-0.749577,-0.145737
28538,,9.671653,1.600801,-1.266989,0.006872,0.021095,-0.024394,0.831787,0.329102,-0.468262,0.644268,-0.042517,-0.749576,-0.145763
28539,,9.689498,1.616615,-1.274492,0.013732,0.020947,-0.023632,0.836426,0.326904,-0.463867,0.644267,-0.042471,-0.749578,-0.145771
28540,,9.689381,1.618784,-1.272631,0.013281,0.021976,-0.024675,0.829590,0.328857,-0.468506,0.644270,-0.042411,-0.749578,-0.145775
28541,,9.662583,1.661161,-1.263429,0.009783,0.019674,-0.022763,0.836426,0.329102,-0.470459,0.644264,-0.042383,-0.749581,-0.145794
28542,,9.689144,1.622972,-1.269091,0.012225,0.019283,-0.022164,0.836426,0.329102,-0.468262,0.644259,-0.042320,-0.749591,-0.145780
28543,,9.661304,1.609029,-1.280183,0.013298,0.021978,-0.024684,0.831787,0.331299,-0.466309,0.644261,-0.042272,-0.749590,-0.145793
28544,,9.657612,1.633534,-1.252495,0.010086,0.018558,-0.019378,0.836426,0.326904,-0.466064,0.644254,-0.042241,-0.749598,-0.145790
28545,,9.661132,1.612822,-1.276700,0.013597,0.020862,-0.021296,0.836670,0.322510,-0.461670,0.644254,-0.042205,-0.749600,-0.145791
