// Start Time: Unknown
// Update Rate: 100.0Hz
// Filter Profile: human (46.1)
// Option Flags: AHS Disabled ICC Disabled 
// Firmware Version: 4.3.4
PacketCounter,SampleTimeFine,Acc_X,Acc_Y,Acc_Z,Gyr_X,Gyr_Y,Gyr_Z,Mag_X,Mag_Y,Mag_Z,Quat_q0,Quat_q1,Quat_q2,Quat_q3
27626,,3.917751,-1.584855,8.973488,-0.000075,0.027538,-0.017477,0.760254,-0.376465,0.691895,-0.816809,-0.041128,0.216692,-0.533081
27627,,3.910173,-1.618120,8.972384,0.003624,0.033300,-0.015412,0.762451,-0.374268,0.696045,-0.816812,-0.041142,0.216667,-0.533086
27628,,3.916632,-1.602382,8.990674,-0.000509,0.031697,-0.016652,0.758301,-0.378662,0.696533,-0.816819,-0.041146,0.216660,-0.533078
27629,,3.910020,-1.582750,8.977231,-0.001457,0.031815,-0.015206,0.751709,-0.378662,0.698730,-0.816821,-0.041142,0.216655,-0.533077
27630,,3.920696,-1.599968,8.951825,-0.001585,0.029452,-0.013859,0.756104,-0.380859,0.692383,-0.816816,-0.041145,0.216660,-0.533082
27631,,3.909132,-1.601061,8.994173,-0.003178,0.028594,-0.015201,0.762695,-0.378662,0.698486,-0.816815,-0.041143,0.216673,-0.533080
27632,,3.919685,-1.604823,9.027022,-0.000816,0.032802,-0.012410,0.755859,-0.374268,0.700439,-0.816811,-0.041138,0.216663,-0.533089
27633,,3.894842,-1.615270,8.979563,-0.001203,0.031135,-0.013129,0.753662,-0.376465,0.700684,-0.816807,-0.041135,0.216660,-0.533098
27634,,3.923702,-1.602469,8.988206,0.001207,0.029518,-0.011880,0.758301,-0.380859,0.696533,-0.816796,-0.041148,0.216657,-0.533114
27635,,3.898914,-1.599264,8.998927,-0.002109,0.030866,-0.017974,0.758057,-0.376465,0.694092,-0.816804,-0.041147,0.216658,-0.533102
27636,,3.922878,-1.634051,8.947008,-0.001468,0.031844,-0.015184,0.753906,-0.378662,0.700684,-0.816807,-0.041145,0.216652,-0.533100
27637,,3.897682,-1.617368,9.016046,0.000121,0.032710,-0.013835,0.753906,-0.378662,0.698730,-0.816806,-0.041144,0.216640,-0.533107
27638,,3.926711,-1.618084,8.966494,-0.001596,0.029482,-0.013836,0.753906,-0.378662,0.696533,-0.816800,-0.041147,0.216644,-0.533113
27639,,3.898020,-1.595989,8.962432,-0.003187,0.028624,-0.015180,0.756104,-0.383057,0.694580,-0.816799,-0.041145,0.216657,-0.533110
27640,,3.953069,-1.604997,8.976338,-0.000707,0.035207,-0.013725,0.758301,-0.380859,0.698730,-0.816800,-0.041136,0.216636,-0.533118
27641,,3.892853,-1.595087,8.964838,0.000429,0.026199,-0.013304,0.753906,-0.380859,0.696533,-0.816790,-0.041153,0.216649,-0.533127
27642,,3.925734,-1.601320,8.988220,-0.001094,0.033542,-0.014442,0.756104,-0.378662,0.694336,-0.816792,-0.041147,0.216636,-0.533130
27643,,3.909990,-1.596706,8.957787,0.000110,0.032736,-0.013815,0.755859,-0.372070,0.698242,-0.816790,-0.041146,0.216623,-0.533137
27644,,3.897932,-1.597556,9.000285,0.001057,0.032629,-0.015251,0.758301,-0.383057,0.692383,-0.816793,-0.041153,0.216607,-0.533139
27645,,3.913506,-1.580472,8.977441,0.000488,0.034419,-0.013084,0.756104,-0.383057,0.696777,-0.816791,-0.041148,0.216587,-0.533150
27646,,3.887364,-1.630582,9.000522,-0.002432,0.031998,-0.013713,0.756104,-0.380859,0.698730,-0.816790,-0.041140,0.216584,-0.533154
27647,,3.899153,-1.594854,8.962839,-0.004714,0.030551,-0.011557,0.756104,-0.378662,0.694336,-0.816781,-0.041122,0.216593,-0.533165
27648,,3.922772,-1.616172,8.969328,0.001176,0.035021,-0.016574,0.756104,-0.378662,0.694336,-0.816790,-0.041124,0.216567,-0.533163
27649,,3.906672,-1.598100,8.997094,-0.003768,0.030448,-0.012990,0.756348,-0.385254,0.698975,-0.816784,-0.041112,0.216575,-0.533169
27650,,3.926537,-1.600402,8.988795,-0.001869,0.030230,-0.015864,0.758057,-0.374268,0.696289,-0.816786,-0.041114,0.216576,-0.533165
27651,,3.915240,-1.615003,8.972829,-0.001739,0.027158,-0.012461,0.753906,-0.380859,0.694336,-0.816775,-0.041118,0.216592,-0.533175
27652,,3.890555,-1.611965,8.983342,-0.000666,0.029426,-0.015234,0.756104,-0.378662,0.700684,-0.816775,-0.041127,0.216593,-0.533174
27653,,3.919395,-1.599219,8.992122,-0.003775,0.030462,-0.012979,0.756104,-0.378662,0.694336,-0.816770,-0.041115,0.216601,-0.533180
27654,,3.903911,-1.594887,8.961527,-0.002446,0.032031,-0.013689,0.753906,-0.383057,0.700928,-0.816768,-0.041107,0.216597,-0.533185
27655,,3.918131,-1.617706,9.009202,-0.001241,0.031224,-0.013061,0.758301,-0.378662,0.694336,-0.816763,-0.041103,0.216594,-0.533193
27656,,3.898780,-1.594135,8.963894,-0.001622,0.029552,-0.013784,0.753906,-0.378662,0.692139,-0.816759,-0.041105,0.216598,-0.533198
27657,,3.931549,-1.600531,8.987410,-0.003781,0.030478,-0.012969,0.753662,-0.376465,0.696289,-0.816754,-0.041093,0.216605,-0.533204
27658,,3.912208,-1.577188,8.942064,-0.003783,0.030482,-0.012966,0.753906,-0.378662,0.696533,-0.816748,-0.041083,0.216611,-0.533211
27659,,3.895107,-1.612680,8.982004,-0.004358,0.032271,-0.010799,0.753662,-0.376465,0.696289,-0.816739,-0.041062,0.216613,-0.533226
27660,,3.923787,-1.600118,8.990875,-0.002579,0.029678,-0.012335,0.758057,-0.376465,0.696289,-0.816730,-0.041058,0.216619,-0.533237
27661,,3.880370,-1.613869,9.025458,-0.003155,0.031468,-0.010168,0.758301,-0.378662,0.696533,-0.816718,-0.041043,0.216621,-0.533256
27662,,3.909686,-1.614723,8.976130,-0.002458,0.032064,-0.013663,0.753906,-0.383057,0.694580,-0.816718,-0.041035,0.216617,-0.533258
27663,,3.907143,-1.614528,8.977273,-0.005373,0.029637,-0.014304,0.755859,-0.374268,0.694092,-0.816716,-0.041020,0.216632,-0.533257
27664,,3.900509,-1.595170,8.963789,-0.000755,0.035317,-0.013637,0.756104,-0.380859,0.696533,-0.816717,-0.041010,0.216610,-0.533265
27665,,3.901712,-1.613943,8.979740,-0.003793,0.030509,-0.012945,0.756104,-0.380859,0.694336,-0.816712,-0.040998,0.216617,-0.533271
27666,,3.944107,-1.618674,8.962209,0.000525,0.028671,-0.014563,0.756104,-0.380859,0.698730,-0.816708,-0.041012,0.216619,-0.533275
27667,,3.919128,-1.615674,8.972738,-0.001838,0.033059,-0.010858,0.751709,-0.380859,0.698730,-0.816699,-0.040998,0.216611,-0.533293
27668,,3.916484,-1.615390,8.973943,-0.002843,0.030412,-0.014373,0.753662,-0.374268,0.691895,-0.816697,-0.040994,0.216614,-0.533295
27669,,3.905123,-1.630047,8.957998,-0.001263,0.031281,-0.013015,0.756104,-0.380859,0.696533,-0.816692,-0.040990,0.216611,-0.533304
27670,,3.911422,-1.614802,8.976256,-0.005382,0.029663,-0.014286,0.758301,-0.383057,0.696777,-0.816690,-0.040977,0.216624,-0.533303
27671,,3.908957,-1.614611,8.977365,-0.002848,0.030424,-0.014363,0.753906,-0.380859,0.698730,-0.816688,-0.040970,0.216629,-0.533305
27672,,3.892750,-1.596938,9.004921,-0.005965,0.031457,-0.012117,0.756104,-0.378662,0.694336,-0.816682,-0.040948,0.216637,-0.533312
27673,,3.903811,-1.614439,8.979634,-0.003805,0.030541,-0.012923,0.758301,-0.383057,0.692383,-0.816677,-0.040935,0.216644,-0.533318
27674,,3.892628,-1.629178,8.963592,-0.002019,0.027946,-0.014457,0.751709,-0.381104,0.690186,-0.816674,-0.040940,0.216655,-0.533319
27675,,3.930248,-1.601271,8.989704,-0.001898,0.030333,-0.015785,0.756104,-0.378662,0.698730,-0.816675,-0.040939,0.216657,-0.533315
27676,,3.918929,-1.615832,8.973759,-0.001527,0.032015,-0.015052,0.755859,-0.374268,0.691895,-0.816676,-0.040937,0.216650,-0.533317
27677,,3.912332,-1.596407,8.960278,-0.003691,0.032940,-0.014241,0.756104,-0.380859,0.698730,-0.816677,-0.040920,0.216647,-0.533319
27678,,3.903831,-1.616591,9.017327,0.000633,0.031104,-0.015852,0.751465,-0.376465,0.700684,-0.816680,-0.040929,0.216638,-0.533317
27679,,3.919890,-1.599578,8.994526,-0.004439,0.029590,-0.015696,0.756104,-0.383057,0.696777,-0.816681,-0.040919,0.216650,-0.533311
27680,,3.904715,-1.595120,8.963829,0.001501,0.031381,-0.010995,0.758301,-0.380859,0.696533,-0.816670,-0.040926,0.216638,-0.533332
27681,,3.887521,-1.630274,9.003688,-0.001906,0.030357,-0.015767,0.758057,-0.374268,0.691895,-0.816671,-0.040925,0.216640,-0.533329
27682,,3.926068,-1.615762,8.971681,-0.001908,0.030362,-0.015764,0.753906,-0.380859,0.700928,-0.816675,-0.040925,0.216641,-0.533323
27683,,3.923516,-1.615412,8.972860,-0.002246,0.031446,-0.011538,0.756104,-0.383057,0.696777,-0.816667,-0.040915,0.216641,-0.533337
27684,,3.898571,-1.612566,8.983209,-0.002281,0.028690,-0.016489,0.751709,-0.378662,0.696533,-0.816668,-0.040920,0.216648,-0.533331
27685,,3.922478,-1.633703,8.989881,-0.001542,0.032054,-0.015023,0.753906,-0.380859,0.696533,-0.816670,-0.040915,0.216643,-0.533332
27686,,3.924641,-1.599176,8.993553,-0.001295,0.031352,-0.012961,0.760498,-0.380859,0.696533,-0.816664,-0.040913,0.216638,-0.533343
27687,,3.886183,-1.645356,8.984289,-0.000708,0.029569,-0.015121,0.756104,-0.380859,0.696533,-0.816663,-0.040918,0.216640,-0.533343
27688,,3.942080,-1.600712,8.986744,-0.001547,0.032067,-0.015013,0.758301,-0.380859,0.692383,-0.816666,-0.040914,0.216633,-0.533342
27689,,3.908332,-1.612690,8.979974,0.000616,0.031152,-0.015814,0.751709,-0.383057,0.698975,-0.816668,-0.040921,0.216625,-0.533341
27690,,3.924289,-1.595641,8.957313,-0.003716,0.032995,-0.014203,0.756104,-0.378662,0.698730,-0.816668,-0.040906,0.216620,-0.533344
27691,,3.894534,-1.626971,8.965160,-0.002042,0.028010,-0.014410,0.758301,-0.378662,0.694336,-0.816663,-0.040909,0.216633,-0.533346
27692,,3.919424,-1.594954,8.959566,-0.001675,0.029695,-0.013675,0.753906,-0.378662,0.696533,-0.816660,-0.040910,0.216636,-0.533349
27693,,3.912237,-1.628678,8.958236,-0.001676,0.029699,-0.013672,0.758301,-0.380859,0.690186,-0.816656,-0.040909,0.216640,-0.533355
27694,,3.904615,-1.595582,9.002903,0.001448,0.028679,-0.015902,0.758301,-0.383057,0.698730,-0.816656,-0.040928,0.216639,-0.533353
27695,,3.916158,-1.612297,8.977729,0.001199,0.029391,-0.017957,0.753906,-0.380859,0.692383,-0.816662,-0.040944,0.216636,-0.533344
27696,,3.905146,-1.626734,8.961683,-0.001682,0.029710,-0.013664,0.751709,-0.378662,0.700684,-0.816657,-0.040945,0.216639,-0.533350
27697,,3.902623,-1.626092,8.962898,0.003137,0.031950,-0.015856,0.753662,-0.376465,0.694092,-0.816660,-0.040960,0.216621,-0.533352
27698,,3.908423,-1.610350,8.981449,-0.001078,0.036183,-0.015574,0.758301,-0.383057,0.692383,-0.816666,-0.040949,0.216595,-0.533354
27699,,3.932214,-1.631388,8.988303,-0.000846,0.027226,-0.013762,0.756104,-0.380859,0.698730,-0.816659,-0.040958,0.216608,-0.533359
27700,,3.903377,-1.609411,8.983811,-0.001569,0.032117,-0.014977,0.753906,-0.378662,0.696533,-0.816661,-0.040954,0.216600,-0.533359
27701,,3.923388,-1.611298,8.975914,0.000231,0.029521,-0.016508,0.753906,-0.380859,0.698730,-0.816663,-0.040965,0.216600,-0.533355
27702,,3.898492,-1.608378,8.986117,-0.003264,0.028864,-0.015010,0.753906,-0.378662,0.696533,-0.816661,-0.040963,0.216610,-0.533354
27703,,3.918559,-1.610560,8.978155,-0.004107,0.031365,-0.014902,0.760498,-0.378662,0.698486,-0.816662,-0.040949,0.216614,-0.533352
27704,,3.919823,-1.629305,8.994091,-0.001576,0.032135,-0.014964,0.758057,-0.376465,0.694092,-0.816665,-0.040945,0.216606,-0.533351
27705,,3.918058,-1.575670,8.983037,-0.001943,0.030456,-0.015695,0.751709,-0.378662,0.696533,-0.816666,-0.040944,0.216608,-0.533348
27706,,3.906299,-1.643384,8.979209,0.000470,0.028832,-0.014435,0.749512,-0.380859,0.698730,-0.816663,-0.040956,0.216609,-0.533352
27707,,3.908624,-1.608588,8.982838,0.001430,0.028733,-0.015860,0.756104,-0.380859,0.696533,-0.816662,-0.040973,0.216609,-0.533352
27708,,3.888259,-1.571385,8.995565,-0.000622,0.032048,-0.016379,0.756104,-0.378662,0.696533,-0.816666,-0.040976,0.216598,-0.533351
27709,,3.926170,-1.609853,8.976185,-0.001705,0.029761,-0.013627,0.756104,-0.378662,0.698730,-0.816661,-0.040974,0.216602,-0.533357
27710,,3.923749,-1.609329,8.977337,0.000219,0.029559,-0.016479,0.758301,-0.380859,0.696533,-0.816664,-0.040986,0.216600,-0.533351
27711,,3.921313,-1.608776,8.978501,-0.001952,0.030480,-0.015678,0.758301,-0.380859,0.696533,-0.816666,-0.040984,0.216602,-0.533349
27712,,3.905752,-1.657400,8.959923,0.000216,0.029567,-0.016473,0.756104,-0.380859,0.696533,-0.816670,-0.040996,0.216600,-0.533343
27713,,3.916470,-1.607530,8.980838,-0.000030,0.030283,-0.018526,0.756104,-0.378662,0.696533,-0.816678,-0.041006,0.216596,-0.533330
27714,,3.893264,-1.617908,8.932754,0.000456,0.028864,-0.014411,0.753906,-0.378662,0.694336,-0.816675,-0.041018,0.216597,-0.533334
27715,,3.911538,-1.606228,8.983220,0.000934,0.032950,-0.014991,0.758301,-0.378662,0.698486,-0.816677,-0.041021,0.216581,-0.533338
27716,,3.919237,-1.603940,8.943459,0.000210,0.029584,-0.016461,0.756104,-0.380859,0.700928,-0.816680,-0.041032,0.216578,-0.533333
27717,,3.906522,-1.604827,8.985652,0.001533,0.031172,-0.017147,0.756348,-0.387451,0.697021,-0.816685,-0.041044,0.216568,-0.533328
27718,,3.895534,-1.619152,8.969630,0.000567,0.031278,-0.015718,0.758301,-0.378662,0.696533,-0.816687,-0.041053,0.216557,-0.533329
27719,,3.901452,-1.603384,8.988112,0.001773,0.030468,-0.015085,0.758301,-0.378662,0.696533,-0.816686,-0.041065,0.216549,-0.533333
27720,,3.890508,-1.617773,8.972060,0.000806,0.030573,-0.013656,0.756104,-0.383057,0.696777,-0.816684,-0.041073,0.216542,-0.533338
27721,,3.918825,-1.604755,8.981601,-0.006195,0.034750,-0.015379,0.760498,-0.383057,0.696777,-0.816690,-0.041042,0.216538,-0.533333
27722,,3.911866,-1.638536,8.980194,-0.000877,0.024550,-0.018655,0.753906,-0.380859,0.700928,-0.816694,-0.041065,0.216558,-0.533317
27723,,3.932920,-1.587087,8.960105,-0.000649,0.032114,-0.016331,0.753906,-0.378662,0.705078,-0.816699,-0.041065,0.216550,-0.533313
27724,,3.934242,-1.605598,8.976069,-0.000768,0.029718,-0.015011,0.753906,-0.383057,0.698975,-0.816697,-0.041071,0.216549,-0.533316
27725,,3.896896,-1.598727,8.954149,-0.000411,0.031409,-0.014270,0.753906,-0.380859,0.698730,-0.816695,-0.041072,0.216543,-0.533321
27726,,3.887774,-1.618910,9.011088,-0.000412,0.031413,-0.014267,0.753906,-0.380859,0.696533,-0.816692,-0.041074,0.216535,-0.533329
27727,,3.916355,-1.605631,9.020596,0.000077,0.027229,-0.015110,0.749268,-0.376465,0.700684,-0.816688,-0.041089,0.216545,-0.533330
27728,,3.919717,-1.637633,8.978296,-0.001024,0.033209,-0.012099,0.758301,-0.383057,0.694580,-0.816681,-0.041082,0.216531,-0.533346
27729,,3.902863,-1.619666,9.005718,-0.000050,0.030353,-0.018474,0.755859,-0.376465,0.698486,-0.816690,-0.041091,0.216527,-0.533334
27730,,3.915212,-1.583364,8.968514,-0.000788,0.032503,-0.010038,0.753906,-0.380859,0.696533,-0.816680,-0.041084,0.216517,-0.533355
27731,,3.920185,-1.621034,8.999303,-0.000661,0.032149,-0.016306,0.758301,-0.380859,0.696533,-0.816684,-0.041083,0.216508,-0.533351
27732,,3.905451,-1.616546,8.968446,-0.001987,0.030566,-0.015619,0.755859,-0.376465,0.696289,-0.816686,-0.041082,0.216508,-0.533348
27733,,3.915170,-1.619982,9.001675,0.000186,0.029655,-0.016407,0.756104,-0.378662,0.698730,-0.816688,-0.041092,0.216507,-0.533345
27734,,3.905014,-1.581275,8.973328,-0.000427,0.031447,-0.014242,0.753662,-0.376465,0.696289,-0.816688,-0.041094,0.216499,-0.533348
27735,,3.912306,-1.632372,8.945815,-0.001752,0.029862,-0.013556,0.751709,-0.383057,0.698975,-0.816683,-0.041092,0.216503,-0.533354
27736,,3.914245,-1.597828,8.949537,-0.001638,0.032271,-0.014867,0.753906,-0.378662,0.698730,-0.816683,-0.041088,0.216494,-0.533358
27737,,3.901161,-1.599055,8.991662,-0.001994,0.030586,-0.015604,0.756104,-0.383057,0.694580,-0.816685,-0.041085,0.216496,-0.533355
27738,,3.935580,-1.618102,8.957912,0.003064,0.032141,-0.015700,0.751709,-0.380859,0.694580,-0.816687,-0.041101,0.216475,-0.533359
27739,,3.918812,-1.600120,8.985220,-0.003675,0.027315,-0.015658,0.760742,-0.387451,0.694824,-0.816685,-0.041101,0.216494,-0.533354
27740,,3.889350,-1.631602,8.992589,-0.002000,0.030599,-0.015595,0.751465,-0.376465,0.696289,-0.816685,-0.041100,0.216493,-0.533354
27741,,3.905672,-1.614491,8.970149,-0.002970,0.030701,-0.014171,0.753906,-0.378662,0.696533,-0.816683,-0.041092,0.216497,-0.533356
27742,,3.911509,-1.599046,8.988593,-0.002356,0.028917,-0.016330,0.758301,-0.380859,0.694336,-0.816685,-0.041095,0.216504,-0.533351
27743,,3.912869,-1.617817,9.004488,-0.003943,0.030807,-0.012744,0.755859,-0.376465,0.694092,-0.816679,-0.041081,0.216510,-0.533358
27744,,3.902193,-1.632423,8.988300,0.002586,0.028072,-0.015107,0.749512,-0.383301,0.694580,-0.816677,-0.041104,0.216508,-0.533360
27745,,3.904107,-1.597507,8.992084,0.000637,0.033804,-0.016938,0.758301,-0.378662,0.696533,-0.816685,-0.041105,0.216489,-0.533355
27746,,3.919674,-1.633248,8.982033,0.000520,0.031401,-0.015624,0.756104,-0.380859,0.692383,-0.816686,-0.041113,0.216478,-0.533358
27747,,3.886813,-1.592376,8.962455,-0.001184,0.030883,-0.010728,0.760742,-0.385254,0.696777,-0.816675,-0.041107,0.216477,-0.533377
27748,,3.937232,-1.634595,8.975667,-0.001042,0.030534,-0.016992,0.758301,-0.380859,0.696533,-0.816680,-0.041112,0.216474,-0.533369
27749,,3.908225,-1.612724,8.970849,-0.000455,0.031511,-0.014194,0.753906,-0.380859,0.703125,-0.816679,-0.041112,0.216468,-0.533374
27750,,3.905806,-1.612141,8.972008,-0.000189,0.028036,-0.017095,0.758301,-0.378662,0.696533,-0.816681,-0.041126,0.216472,-0.533367
27751,,3.930481,-1.579604,8.966985,0.000512,0.031423,-0.015607,0.756104,-0.378662,0.700684,-0.816683,-0.041132,0.216463,-0.533367
27752,,3.912902,-1.614786,9.006507,0.000159,0.029736,-0.016347,0.758301,-0.380859,0.698730,-0.816687,-0.041142,0.216460,-0.533362
27753,,3.898755,-1.610187,8.975424,-0.000893,0.024665,-0.018572,0.753906,-0.383057,0.696777,-0.816690,-0.041163,0.216482,-0.533347
27754,,3.919268,-1.611966,8.967729,-0.001551,0.029218,-0.011452,0.751709,-0.378662,0.694336,-0.816678,-0.041163,0.216486,-0.533363
27755,,3.875125,-1.625886,9.001186,0.002797,0.032939,-0.017689,0.758545,-0.385254,0.692627,-0.816687,-0.041176,0.216465,-0.533357
27756,,3.926130,-1.614483,9.002359,0.000153,0.029752,-0.016335,0.753906,-0.383057,0.696777,-0.816688,-0.041187,0.216462,-0.533356
27757,,3.888992,-1.607643,8.980115,0.000500,0.031448,-0.015588,0.753662,-0.376465,0.696289,-0.816690,-0.041193,0.216453,-0.533356
27758,,3.904637,-1.643398,8.970134,-0.000596,0.034681,-0.017526,0.756104,-0.383057,0.698975,-0.816700,-0.041189,0.216431,-0.533350
27759,,3.910652,-1.574374,8.976569,0.001469,0.031362,-0.016999,0.756104,-0.380859,0.698730,-0.816705,-0.041200,0.216420,-0.533346
27760,,3.899420,-1.641734,8.972708,0.005203,0.031332,-0.016402,0.755859,-0.376465,0.696289,-0.816708,-0.041227,0.216396,-0.533350
27761,,3.901032,-1.606440,8.976668,0.005661,0.035443,-0.016962,0.753662,-0.374268,0.696289,-0.816716,-0.041244,0.216357,-0.533351
27762,,3.910182,-1.609456,9.010197,0.000490,0.031471,-0.015573,0.756348,-0.383057,0.703125,-0.816720,-0.041251,0.216346,-0.533349
27763,,3.903784,-1.589803,8.996637,-0.000719,0.032291,-0.016204,0.753906,-0.378662,0.696533,-0.816725,-0.041249,0.216337,-0.533346
27764,,3.915697,-1.606500,8.971897,0.000599,0.033895,-0.016873,0.760254,-0.376465,0.698486,-0.816732,-0.041252,0.216315,-0.533343
27765,,3.890413,-1.603561,8.981789,0.001346,0.028975,-0.015673,0.754150,-0.385254,0.698975,-0.816731,-0.041267,0.216314,-0.533343
27766,,3.902679,-1.620204,8.956922,0.000137,0.029795,-0.016305,0.755859,-0.376465,0.698486,-0.816734,-0.041277,0.216310,-0.533340
27767,,3.908247,-1.604403,8.975520,0.000247,0.032215,-0.017607,0.758301,-0.383057,0.696777,-0.816742,-0.041282,0.216299,-0.533332
27768,,3.901446,-1.637886,8.974157,0.000133,0.029804,-0.016299,0.751709,-0.380859,0.694580,-0.816746,-0.041292,0.216295,-0.533327
27769,,3.918873,-1.626140,9.024913,-0.002051,0.030718,-0.015515,0.751709,-0.378662,0.702881,-0.816747,-0.041289,0.216296,-0.533325
27770,,3.900795,-1.602625,8.979079,-0.000104,0.030534,-0.018342,0.758301,-0.380859,0.694336,-0.816753,-0.041299,0.216289,-0.533318
27771,,3.913164,-1.619197,8.954226,0.000758,0.028028,-0.018450,0.755859,-0.376465,0.698486,-0.816759,-0.041318,0.216293,-0.533306
27772,,3.918870,-1.603320,8.972774,-0.000107,0.030543,-0.018336,0.758057,-0.376465,0.696289,-0.816769,-0.041327,0.216287,-0.533293
27773,,3.893707,-1.600386,8.982554,0.001099,0.029732,-0.017698,0.756104,-0.378662,0.696533,-0.816774,-0.041341,0.216283,-0.533285
27774,,3.909739,-1.635944,8.972596,0.001441,0.031431,-0.016949,0.758301,-0.380859,0.703125,-0.816782,-0.041353,0.216269,-0.533278
27775,,3.899735,-1.597312,8.944140,-0.003615,0.029864,-0.016879,0.756104,-0.380859,0.700928,-0.816786,-0.041347,0.216278,-0.533268
27776,,3.928755,-1.589401,9.027194,0.003221,0.031597,-0.013510,0.756104,-0.378662,0.696533,-0.816783,-0.041362,0.216259,-0.533280
27777,,3.929248,-1.601900,8.970250,0.001836,0.030379,-0.021148,0.756104,-0.380859,0.694336,-0.816798,-0.041382,0.216250,-0.533259
27778,,3.892454,-1.595135,8.947700,-0.002754,0.027364,-0.016983,0.756104,-0.383057,0.696777,-0.816800,-0.041387,0.216264,-0.533249
27779,,3.901897,-1.598499,8.981028,0.000113,0.029851,-0.016265,0.753906,-0.380859,0.696533,-0.816802,-0.041396,0.216262,-0.533246
27780,,3.945130,-1.602281,8.965036,-0.002757,0.027371,-0.016978,0.758301,-0.380859,0.692383,-0.816802,-0.041402,0.216276,-0.533240
27781,,3.904872,-1.635574,9.012824,-0.001209,0.028255,-0.015592,0.753906,-0.378662,0.696533,-0.816801,-0.041409,0.216285,-0.533238
27782,,3.898126,-1.610428,8.926078,-0.002650,0.029799,-0.018274,0.751709,-0.378662,0.698730,-0.816809,-0.041410,0.216288,-0.533224
27783,,3.907381,-1.613940,8.959463,-0.003057,0.030868,-0.014062,0.753906,-0.383057,0.696777,-0.816807,-0.041401,0.216292,-0.533227
27784,,3.931439,-1.634651,8.966935,0.000104,0.029872,-0.016248,0.756104,-0.378662,0.696533,-0.816806,-0.041411,0.216288,-0.533229
27785,,3.914516,-1.563517,8.981861,0.000443,0.031573,-0.015498,0.756104,-0.380859,0.700928,-0.816808,-0.041416,0.216279,-0.533229
27786,,3.922910,-1.614471,8.954410,-0.002874,0.024972,-0.015661,0.753906,-0.383057,0.698975,-0.816804,-0.041426,0.216302,-0.533225
27787,,3.909579,-1.615948,8.996187,-0.004613,0.030003,-0.015435,0.751709,-0.378662,0.694336,-0.816805,-0.041414,0.216313,-0.533220
27788,,3.907258,-1.615647,8.997250,-0.002768,0.027402,-0.016956,0.758301,-0.378662,0.698486,-0.816804,-0.041421,0.216327,-0.533216
27789,,3.893447,-1.611312,8.966000,-0.001561,0.026589,-0.016317,0.756104,-0.380859,0.696533,-0.816802,-0.041431,0.216343,-0.533210
27790,,3.944684,-1.600016,8.967531,-0.003410,0.029198,-0.014791,0.756348,-0.385254,0.694580,-0.816802,-0.041427,0.216352,-0.533208
27791,,3.907752,-1.593531,8.944914,0.000201,0.032326,-0.017525,0.756104,-0.378662,0.700684,-0.816810,-0.041431,0.216340,-0.533201
27792,,3.913050,-1.577737,8.963603,0.000659,0.030878,-0.013426,0.751709,-0.381104,0.692383,-0.816804,-0.041437,0.216331,-0.533213
27793,,3.925963,-1.599910,9.011914,0.002277,0.029003,-0.016994,0.758057,-0.376465,0.694092,-0.816806,-0.041458,0.216327,-0.533209
27794,,3.915467,-1.614562,8.995697,-0.003383,0.034399,-0.011123,0.760498,-0.380859,0.698730,-0.816800,-0.041436,0.216315,-0.533225
27795,,3.908923,-1.595107,8.982159,0.001970,0.032499,-0.014078,0.756104,-0.378662,0.696533,-0.816799,-0.041443,0.216299,-0.533233
27796,,3.906198,-1.594523,8.983449,0.000009,0.032684,-0.011254,0.756104,-0.383057,0.696777,-0.816792,-0.041439,0.216284,-0.533249
27797,,3.930155,-1.615102,8.991082,0.000085,0.029927,-0.016208,0.755859,-0.376465,0.698486,-0.816794,-0.041447,0.216283,-0.533246
27798,,3.900961,-1.593455,8.985913,-0.001433,0.034237,-0.013932,0.758057,-0.374268,0.694092,-0.816795,-0.041436,0.216266,-0.533252
27799,,3.905281,-1.625447,8.943882,-0.001435,0.034242,-0.013928,0.749756,-0.385254,0.698975,-0.816796,-0.041425,0.216251,-0.533258
27800,,3.899088,-1.611453,9.003366,0.003169,0.031706,-0.013423,0.758301,-0.378662,0.698486,-0.816790,-0.041439,0.216232,-0.533273
27801,,3.919070,-1.612894,8.996316,-0.001331,0.036679,-0.015219,0.756104,-0.378662,0.694336,-0.816797,-0.041423,0.216207,-0.533274
27802,,3.897217,-1.623782,8.947701,-0.002889,0.025028,-0.015625,0.755859,-0.374268,0.696289,-0.816795,-0.041432,0.216231,-0.533267
27803,,3.902712,-1.608196,8.966254,-0.000570,0.031743,-0.014029,0.758301,-0.378662,0.694336,-0.816793,-0.041431,0.216224,-0.533273
27804,,3.930715,-1.594608,8.976585,-0.000571,0.031747,-0.014025,0.758301,-0.378662,0.698486,-0.816794,-0.041429,0.216215,-0.533274
27805,,3.905216,-1.592081,8.986199,-0.001782,0.032569,-0.014660,0.753662,-0.376465,0.696289,-0.816795,-0.041421,0.216208,-0.533276
27806,,3.921358,-1.627807,8.976445,0.000406,0.031668,-0.015427,0.760498,-0.380859,0.696533,-0.816799,-0.041426,0.216196,-0.533275
27807,,3.892175,-1.606228,8.971186,-0.001559,0.031849,-0.012608,0.756104,-0.383057,0.696777,-0.816794,-0.041419,0.216192,-0.533286
27808,,3.912318,-1.607792,8.964101,0.000737,0.033378,-0.014669,0.758057,-0.374268,0.700439,-0.816795,-0.041420,0.216172,-0.533291
27809,,3.921105,-1.611260,8.997676,-0.004086,0.031063,-0.012584,0.756104,-0.380859,0.694336,-0.816790,-0.041404,0.216178,-0.533299
27810,,3.891944,-1.589807,8.992358,0.000400,0.031686,-0.015414,0.749268,-0.374268,0.694092,-0.816794,-0.041408,0.216166,-0.533296
27811,,3.908192,-1.625594,8.982586,-0.003108,0.030983,-0.013986,0.756104,-0.380859,0.696533,-0.816792,-0.041399,0.216169,-0.533299
27812,,3.901979,-1.606195,8.968892,-0.000918,0.030081,-0.014752,0.758057,-0.374268,0.689697,-0.816790,-0.041402,0.216167,-0.533303
27813,,3.918522,-1.594388,9.019964,-0.002023,0.033335,-0.016680,0.756104,-0.378662,0.700684,-0.816797,-0.041393,0.216157,-0.533297
27814,,3.904354,-1.589988,8.988901,0.000724,0.033407,-0.014647,0.753906,-0.378662,0.692139,-0.816802,-0.041393,0.216138,-0.533297
27815,,3.901619,-1.589465,8.990180,-0.001801,0.032615,-0.014629,0.753906,-0.380859,0.692383,-0.816803,-0.041385,0.216131,-0.533299
27816,,3.925489,-1.610104,8.997992,-0.001803,0.032619,-0.014625,0.751709,-0.383057,0.696777,-0.816802,-0.041378,0.216121,-0.533304
27817,,3.900022,-1.607468,9.007513,0.002805,0.030083,-0.014111,0.758301,-0.383057,0.700928,-0.816798,-0.041395,0.216112,-0.533313
27818,,3.928007,-1.593998,9.017922,-0.006073,0.031274,-0.009749,0.760498,-0.378662,0.696533,-0.816783,-0.041369,0.216120,-0.533336
27819,,3.906337,-1.605099,8.969219,0.000385,0.031728,-0.015383,0.753906,-0.383057,0.696777,-0.816784,-0.041373,0.216110,-0.533337
27820,,3.926629,-1.606738,8.962155,-0.004108,0.031108,-0.012555,0.756104,-0.383057,0.694580,-0.816779,-0.041358,0.216113,-0.533345
27821,,3.912324,-1.608281,9.004050,0.000281,0.034499,-0.010418,0.756104,-0.380859,0.694336,-0.816770,-0.041349,0.216094,-0.533367
27822,,3.905905,-1.588947,8.990433,-0.002902,0.030298,-0.011911,0.755859,-0.372070,0.696045,-0.816761,-0.041341,0.216097,-0.533381
27823,,3.899559,-1.623010,8.988827,-0.004546,0.026981,-0.012011,0.751709,-0.378662,0.696533,-0.816749,-0.041334,0.216121,-0.533389
27824,,3.908814,-1.621091,8.949226,-0.004443,0.029420,-0.013299,0.758301,-0.380859,0.698730,-0.816746,-0.041322,0.216131,-0.533391
27825,,3.914039,-1.605819,8.967825,-0.004221,0.028692,-0.011252,0.751709,-0.383057,0.698975,-0.816734,-0.041311,0.216148,-0.533403
27826,,3.896266,-1.588547,8.994685,-0.004118,0.031132,-0.012539,0.753662,-0.376465,0.694092,-0.816727,-0.041296,0.216150,-0.533415
27827,,3.912726,-1.624551,8.984914,-0.003462,0.029346,-0.014695,0.758301,-0.383057,0.694580,-0.816725,-0.041290,0.216161,-0.533414
27828,,3.910215,-1.624431,8.986029,-0.005108,0.031226,-0.011129,0.758057,-0.374268,0.702637,-0.816716,-0.041269,0.216166,-0.533427
27829,,3.900351,-1.586350,8.957408,-0.004450,0.029439,-0.013285,0.762695,-0.380859,0.698730,-0.816710,-0.041257,0.216179,-0.533431
27830,,3.901591,-1.605247,8.973350,-0.004452,0.029443,-0.013283,0.753662,-0.376465,0.696289,-0.816711,-0.041244,0.216190,-0.533427
27831,,3.906662,-1.589948,8.992015,-0.004127,0.031152,-0.012524,0.753906,-0.380859,0.698730,-0.816705,-0.041228,0.216195,-0.533434
27832,,3.927097,-1.591924,8.984916,-0.006977,0.028651,-0.013270,0.756104,-0.380859,0.696533,-0.816700,-0.041209,0.216215,-0.533437
27833,,3.920868,-1.626062,8.983248,-0.001817,0.027083,-0.009951,0.753906,-0.380859,0.698730,-0.816682,-0.041210,0.216232,-0.533457
27834,,3.887931,-1.585850,8.962894,-0.003377,0.037014,-0.012290,0.751709,-0.378662,0.694336,-0.816681,-0.041182,0.216208,-0.533470
27835,,3.915141,-1.625609,8.985827,-0.002717,0.035229,-0.014446,0.760498,-0.383057,0.696777,-0.816685,-0.041164,0.216193,-0.533472
27836,,3.923943,-1.623523,8.946559,-0.003485,0.034585,-0.010996,0.756104,-0.383057,0.696777,-0.816678,-0.041140,0.216181,-0.533488
27837,,3.886561,-1.623195,8.996508,-0.001940,0.030274,-0.013269,0.756104,-0.380859,0.694336,-0.816673,-0.041136,0.216184,-0.533495
27838,,3.903226,-1.605840,8.974692,-0.002826,0.032803,-0.013149,0.758301,-0.378662,0.696533,-0.816670,-0.041122,0.216176,-0.533504
27839,,3.893032,-1.620580,8.958357,0.000357,0.031820,-0.015310,0.749512,-0.383057,0.698975,-0.816671,-0.041126,0.216167,-0.533506
27840,,3.890550,-1.620118,8.959519,-0.005453,0.029983,-0.020141,0.753662,-0.372070,0.691895,-0.816684,-0.041117,0.216176,-0.533484
27841,,3.899383,-1.623488,8.993060,-0.000295,0.028416,-0.016818,0.758545,-0.385254,0.698975,-0.816686,-0.041129,0.216181,-0.533478
27842,,3.893064,-1.603927,8.979446,-0.001421,0.036887,-0.015065,0.753906,-0.378662,0.696533,-0.816694,-0.041111,0.216153,-0.533477
27843,,3.913337,-1.605326,8.972605,-0.000297,0.028425,-0.016811,0.751709,-0.378662,0.696533,-0.816696,-0.041123,0.216158,-0.533471
27844,,3.907171,-1.585681,8.958946,0.000669,0.033551,-0.014534,0.756104,-0.380859,0.696533,-0.816697,-0.041123,0.216138,-0.533478
27845,,3.885121,-1.602020,8.983226,0.002865,0.032652,-0.015290,0.758301,-0.378662,0.700684,-0.816699,-0.041135,0.216118,-0.533483
27846,,3.882469,-1.601282,8.984505,0.000343,0.031853,-0.015286,0.756104,-0.380859,0.692383,-0.816703,-0.041138,0.216105,-0.533482
27847,,3.906414,-1.621743,8.992543,-0.001639,0.032024,-0.012482,0.753906,-0.380859,0.696533,-0.816697,-0.041130,0.216101,-0.533493
27848,,3.903843,-1.621002,8.993793,0.004519,0.030793,-0.018839,0.751709,-0.378662,0.696533,-0.816705,-0.041158,0.216081,-0.533486
27849,,3.897839,-1.601105,8.980102,-0.000305,0.028450,-0.016794,0.756104,-0.378662,0.696533,-0.816707,-0.041169,0.216086,-0.533480
27850,,3.906354,-1.604467,9.013772,-0.001107,0.033007,-0.009673,0.753906,-0.383057,0.698975,-0.816696,-0.041158,0.216073,-0.533504
27851,,3.892643,-1.600172,8.982522,-0.000205,0.030904,-0.018071,0.760254,-0.376465,0.691895,-0.816704,-0.041165,0.216068,-0.533493
27852,,3.909449,-1.635565,8.972924,0.000682,0.028380,-0.018185,0.751709,-0.383057,0.694580,-0.816711,-0.041182,0.216069,-0.533480
27853,,3.891604,-1.617829,8.999667,-0.001302,0.028549,-0.015384,0.755859,-0.376465,0.696289,-0.816710,-0.041187,0.216077,-0.533479
27854,,3.896656,-1.602189,9.018373,-0.002513,0.029373,-0.016023,0.756104,-0.380859,0.696533,-0.816710,-0.041187,0.216081,-0.533476
27855,,3.895331,-1.596189,8.946393,-0.005354,0.026861,-0.016783,0.756348,-0.385254,0.696777,-0.816711,-0.041182,0.216107,-0.533464
27856,,3.923331,-1.635672,8.969204,-0.000534,0.029218,-0.018814,0.753662,-0.376465,0.694092,-0.816718,-0.041194,0.216107,-0.533454
27857,,3.898109,-1.633038,8.978317,0.002101,0.026843,-0.015486,0.758301,-0.383057,0.692383,-0.816714,-0.041218,0.216112,-0.533456
27858,,3.899416,-1.598201,8.982224,-0.002101,0.033547,-0.016532,0.753906,-0.383057,0.696777,-0.816722,-0.041209,0.216099,-0.533450
27859,,3.939251,-1.635753,8.964635,-0.003158,0.025974,-0.017530,0.756104,-0.383057,0.694580,-0.816724,-0.041216,0.216123,-0.533437
27860,,3.917777,-1.599326,8.976388,-0.003516,0.029478,-0.014608,0.756104,-0.380859,0.696533,-0.816718,-0.041210,0.216130,-0.533442
27861,,3.908141,-1.614163,8.959823,-0.001634,0.026871,-0.016121,0.756104,-0.380859,0.698730,-0.816717,-0.041220,0.216146,-0.533437
27862,,3.913292,-1.598585,8.978477,-0.003837,0.027776,-0.015364,0.756104,-0.383057,0.694580,-0.816715,-0.041218,0.216160,-0.533434
27863,,3.887940,-1.596432,8.987512,-0.003739,0.030230,-0.016640,0.756348,-0.385254,0.698975,-0.816719,-0.041210,0.216168,-0.533426
27864,,3.901031,-1.613153,8.963103,-0.001898,0.032835,-0.014472,0.755859,-0.374268,0.694092,-0.816717,-0.041202,0.216157,-0.533434
27865,,3.898669,-1.612787,8.964197,-0.002948,0.025257,-0.015474,0.753906,-0.383301,0.692383,-0.816712,-0.041210,0.216183,-0.533430
27866,,3.876884,-1.629541,8.988137,-0.002119,0.033584,-0.016505,0.756104,-0.380859,0.694336,-0.816720,-0.041200,0.216170,-0.533424
27867,,3.904723,-1.615862,8.998974,-0.003629,0.027055,-0.013311,0.751953,-0.387695,0.694824,-0.816712,-0.041198,0.216191,-0.533428
27868,,3.868452,-1.610038,8.975414,-0.004741,0.030331,-0.015229,0.758301,-0.380859,0.700928,-0.816707,-0.041187,0.216197,-0.533434
27869,,3.915662,-1.632458,8.975564,-0.002539,0.029435,-0.015980,0.751709,-0.378662,0.696533,-0.816709,-0.041186,0.216205,-0.533429
27870,,3.909597,-1.613055,8.961816,-0.002226,0.031150,-0.015214,0.758301,-0.380859,0.698730,-0.816710,-0.041181,0.216202,-0.533428
27871,,3.894962,-1.614429,9.003460,0.000971,0.030175,-0.017360,0.753906,-0.383057,0.694580,-0.816715,-0.041193,0.216197,-0.533422
27872,,3.885248,-1.629209,8.986940,-0.004533,0.029606,-0.013180,0.756104,-0.380859,0.700928,-0.816708,-0.041181,0.216206,-0.533429
27873,,3.932477,-1.598454,8.975029,-0.005180,0.031836,-0.019294,0.753906,-0.383057,0.696777,-0.816721,-0.041167,0.216210,-0.533408
27874,,3.906985,-1.596056,8.984095,0.002175,0.029369,-0.016706,0.758301,-0.378662,0.696533,-0.816722,-0.041187,0.216202,-0.533410
27875,,3.943429,-1.614295,8.951818,-0.002549,0.029460,-0.015962,0.753906,-0.383057,0.698975,-0.816723,-0.041185,0.216210,-0.533405
27876,,3.902090,-1.594929,8.986422,0.000279,0.031989,-0.015184,0.756348,-0.385254,0.696777,-0.816724,-0.041188,0.216196,-0.533408
27877,,3.903116,-1.613386,9.002532,-0.001030,0.030360,-0.014550,0.760498,-0.380859,0.696533,-0.816722,-0.041189,0.216196,-0.533411
27878,,3.893363,-1.628173,8.986036,-0.002242,0.031185,-0.015191,0.753662,-0.376465,0.696289,-0.816723,-0.041184,0.216193,-0.533412
27879,,3.894504,-1.593631,8.989942,-0.003552,0.029555,-0.014557,0.755859,-0.376465,0.696289,-0.816720,-0.041177,0.216204,-0.533412
27880,,3.907799,-1.610194,8.965608,0.000058,0.032751,-0.017209,0.758301,-0.378662,0.696533,-0.816732,-0.041178,0.216187,-0.533401
27881,,3.908906,-1.628547,8.981707,-0.000353,0.028587,-0.016695,0.758301,-0.383057,0.698730,-0.816734,-0.041189,0.216193,-0.533395
27882,,3.909988,-1.593787,8.985679,-0.002153,0.033660,-0.016452,0.758301,-0.378662,0.694336,-0.816742,-0.041179,0.216179,-0.533388
27883,,3.896537,-1.642663,8.966481,0.001475,0.031201,-0.014516,0.753906,-0.383057,0.696777,-0.816741,-0.041188,0.216169,-0.533394
27884,,3.897556,-1.607708,8.970511,0.001260,0.031949,-0.016551,0.756104,-0.378662,0.700684,-0.816745,-0.041196,0.216153,-0.533393
27885,,3.898584,-1.625991,8.986655,-0.000262,0.031062,-0.017957,0.753906,-0.380859,0.698730,-0.816753,-0.041202,0.216148,-0.533383
27886,,3.908419,-1.623427,8.947443,-0.001048,0.030399,-0.014523,0.753662,-0.376465,0.694092,-0.816751,-0.041203,0.216144,-0.533386
27887,,3.920097,-1.592353,8.984082,0.001563,0.033678,-0.015775,0.751465,-0.374268,0.696289,-0.816756,-0.041207,0.216123,-0.533388
27888,,3.929932,-1.589700,8.944908,-0.000151,0.027872,-0.014638,0.756104,-0.380859,0.694336,-0.816755,-0.041218,0.216128,-0.533387
27889,,3.908051,-1.606306,8.968754,-0.000269,0.031080,-0.017944,0.756104,-0.380859,0.694336,-0.816762,-0.041224,0.216123,-0.533377
27890,,3.912582,-1.590572,8.987673,-0.001746,0.032207,-0.012354,0.756104,-0.378662,0.692139,-0.816756,-0.041215,0.216115,-0.533390
27891,,3.890371,-1.607480,9.011584,-0.001748,0.032212,-0.012351,0.758301,-0.380859,0.696533,-0.816751,-0.041206,0.216110,-0.533401
27892,,3.930400,-1.591720,8.982313,-0.003575,0.029608,-0.014525,0.753906,-0.380859,0.696533,-0.816750,-0.041198,0.216117,-0.533400
27893,,3.908413,-1.608598,9.006122,-0.001061,0.030429,-0.014502,0.751709,-0.380859,0.694580,-0.816748,-0.041199,0.216117,-0.533402
27894,,3.925400,-1.590926,8.984640,-0.002273,0.031256,-0.015145,0.756104,-0.383057,0.694580,-0.816746,-0.041194,0.216113,-0.533407
27895,,3.892708,-1.604165,8.975807,-0.004579,0.029696,-0.013126,0.753906,-0.380859,0.698730,-0.816741,-0.041181,0.216126,-0.533412
27896,,3.916928,-1.624612,8.984101,0.000356,0.028874,-0.011811,0.751709,-0.380859,0.694580,-0.816727,-0.041190,0.216126,-0.533432
27897,,3.907207,-1.586293,8.955462,-0.004181,0.033882,-0.013624,0.756348,-0.385254,0.701172,-0.816727,-0.041167,0.216120,-0.533436
27898,,3.911815,-1.623815,8.986472,0.002045,0.027015,-0.015353,0.755859,-0.376465,0.698486,-0.816719,-0.041192,0.216122,-0.533446
27899,,3.898733,-1.619443,8.955019,-0.002186,0.033740,-0.016399,0.756104,-0.378662,0.696533,-0.816726,-0.041182,0.216111,-0.533440
27900,,3.903127,-1.603790,8.973972,-0.002283,0.031282,-0.015127,0.755859,-0.374268,0.691895,-0.816731,-0.041175,0.216108,-0.533435
27901,,3.911287,-1.607199,9.007738,-0.004106,0.028676,-0.017304,0.753906,-0.380859,0.698730,-0.816735,-0.041171,0.216122,-0.533423
27902,,3.898282,-1.603129,8.976196,-0.002077,0.030543,-0.013085,0.758301,-0.380859,0.696533,-0.816732,-0.041165,0.216122,-0.533427
27903,,3.911848,-1.619696,8.951949,-0.001079,0.030473,-0.014472,0.756104,-0.380859,0.692383,-0.816731,-0.041165,0.216122,-0.533430
27904,,3.916396,-1.604169,8.970813,-0.004596,0.029731,-0.013104,0.760498,-0.378662,0.694336,-0.816726,-0.041152,0.216131,-0.533435
27905,,3.921163,-1.641768,9.001741,-0.000898,0.027721,-0.019426,0.749512,-0.381104,0.694580,-0.816734,-0.041165,0.216141,-0.533418
27906,,3.922188,-1.607030,9.005708,-0.001782,0.032277,-0.012305,0.756104,-0.380859,0.696533,-0.816728,-0.041156,0.216133,-0.533430
27907,,3.909110,-1.602955,8.974208,-0.002390,0.028846,-0.013839,0.755859,-0.376465,0.694092,-0.816723,-0.041155,0.216143,-0.533434
27908,,3.890523,-1.585580,9.000741,-0.001297,0.031243,-0.016491,0.753906,-0.378662,0.692139,-0.816730,-0.041154,0.216137,-0.533426
27909,,3.911098,-1.586755,8.994297,-0.001299,0.031248,-0.016488,0.756348,-0.385254,0.694580,-0.816734,-0.041154,0.216134,-0.533421
27910,,3.882034,-1.618913,9.000260,-0.003607,0.029681,-0.014477,0.753906,-0.380859,0.703125,-0.816729,-0.041147,0.216141,-0.533426
27911,,3.899150,-1.601489,8.978801,-0.005821,0.030582,-0.013733,0.751709,-0.380859,0.698730,-0.816727,-0.041127,0.216153,-0.533427
27912,,3.907366,-1.604838,9.012539,0.001725,0.025356,-0.016076,0.758545,-0.385254,0.701172,-0.816720,-0.041155,0.216162,-0.533431
27913,,3.933771,-1.619243,8.948015,-0.004220,0.033953,-0.013578,0.756104,-0.378662,0.696533,-0.816720,-0.041132,0.216156,-0.533435
27914,,3.892079,-1.600304,8.982079,-0.000583,0.023791,-0.014065,0.756104,-0.383057,0.696777,-0.816710,-0.041152,0.216178,-0.533440
27915,,3.929226,-1.618358,8.950172,-0.000099,0.030451,-0.015823,0.749512,-0.381104,0.694580,-0.816711,-0.041158,0.216175,-0.533439
27916,,3.887371,-1.599291,8.984299,-0.002106,0.030601,-0.013046,0.753906,-0.378662,0.694336,-0.816701,-0.041154,0.216174,-0.533455
27917,,3.904673,-1.634813,8.975008,-0.001405,0.028813,-0.015199,0.753906,-0.383057,0.698975,-0.816700,-0.041159,0.216182,-0.533454
27918,,3.932314,-1.620764,8.986334,-0.001107,0.030537,-0.014427,0.753906,-0.380859,0.694336,-0.816696,-0.041160,0.216178,-0.533461
27919,,3.896224,-1.614791,8.962405,-0.000313,0.031220,-0.017844,0.756104,-0.380859,0.698730,-0.816704,-0.041165,0.216172,-0.533452
27920,,3.904009,-1.617750,8.996394,0.002498,0.033769,-0.017039,0.758301,-0.383057,0.696777,-0.816710,-0.041174,0.216145,-0.533451
27921,,3.915249,-1.586490,9.033176,-0.000408,0.028758,-0.016575,0.754150,-0.385254,0.698975,-0.816712,-0.041184,0.216150,-0.533446
27922,,3.892070,-1.631794,8.981030,-0.001821,0.032346,-0.012259,0.753906,-0.378662,0.698730,-0.816702,-0.041176,0.216141,-0.533466
27923,,3.926420,-1.602430,9.010242,0.001098,0.029663,-0.015150,0.756104,-0.380859,0.703125,-0.816700,-0.041188,0.216138,-0.533468
27924,,3.906615,-1.613379,8.960963,-0.000821,0.032283,-0.013639,0.753906,-0.378662,0.694336,-0.816699,-0.041184,0.216126,-0.533475
27925,,3.887649,-1.595947,8.987526,0.000182,0.032216,-0.015021,0.760498,-0.380859,0.694336,-0.816700,-0.041185,0.216115,-0.533478
27926,,3.911737,-1.616044,8.996160,-0.001122,0.030571,-0.014404,0.753906,-0.378662,0.696533,-0.816700,-0.041185,0.216112,-0.533479
27927,,3.885900,-1.614031,9.004898,-0.003249,0.033944,-0.014926,0.760498,-0.380859,0.698730,-0.816704,-0.041167,0.216103,-0.533479
27928,,3.912484,-1.628303,8.940580,0.002301,0.028862,-0.014486,0.756104,-0.383057,0.692383,-0.816702,-0.041185,0.216098,-0.533483
27929,,3.916951,-1.612238,8.959550,0.002094,0.029619,-0.016516,0.756348,-0.385254,0.694580,-0.816704,-0.041203,0.216092,-0.533481
27930,,3.901472,-1.613586,9.001057,0.000262,0.034714,-0.016266,0.758301,-0.378662,0.696533,-0.816706,-0.041201,0.216068,-0.533487
27931,,3.921838,-1.614436,8.994933,0.002476,0.033825,-0.016998,0.758301,-0.380859,0.698730,-0.816714,-0.041210,0.216044,-0.533484
27932,,3.919153,-1.613545,8.996263,0.002179,0.032109,-0.017766,0.758301,-0.378662,0.692139,-0.816725,-0.041222,0.216025,-0.533474
27933,,3.889739,-1.592173,8.990109,0.000254,0.034730,-0.016256,0.754150,-0.387451,0.701172,-0.816732,-0.041218,0.216003,-0.533472
27934,,3.890566,-1.610455,9.006337,0.000874,0.030467,-0.017148,0.758301,-0.378662,0.696533,-0.816733,-0.041231,0.215994,-0.533473
27935,,3.911328,-1.611427,9.000047,-0.001640,0.029643,-0.017183,0.754150,-0.387451,0.694824,-0.816738,-0.041234,0.215998,-0.533464
27936,,3.908848,-1.610751,9.001245,0.002375,0.031375,-0.015720,0.760254,-0.374268,0.694092,-0.816736,-0.041249,0.215982,-0.533472
27937,,3.912287,-1.623318,8.944539,-0.001770,0.034889,-0.013476,0.751709,-0.378662,0.698730,-0.816736,-0.041234,0.215966,-0.533480
27938,,3.923189,-1.592283,8.981385,-0.000433,0.028832,-0.016526,0.756104,-0.378662,0.696533,-0.816744,-0.041242,0.215967,-0.533467
27939,,3.877834,-1.607339,9.012382,0.000457,0.032000,-0.021195,0.754150,-0.387451,0.697021,-0.816761,-0.041251,0.215955,-0.533445
27940,,3.908301,-1.640374,8.963109,-0.001649,0.029665,-0.017169,0.756104,-0.378662,0.692139,-0.816761,-0.041256,0.215956,-0.533444
27941,,3.922214,-1.603364,8.926914,0.000568,0.028777,-0.017899,0.756104,-0.380859,0.700928,-0.816766,-0.041271,0.215958,-0.533434
27942,,3.917080,-1.608545,9.001008,-0.001653,0.029674,-0.017163,0.753906,-0.380859,0.694336,-0.816771,-0.041274,0.215959,-0.533426
27943,,3.901159,-1.638654,8.966534,-0.002371,0.031470,-0.015005,0.751709,-0.383057,0.698975,-0.816772,-0.041267,0.215958,-0.533425
27944,,3.931974,-1.590053,8.980957,0.001280,0.026998,-0.020044,0.753662,-0.374268,0.696289,-0.816776,-0.041294,0.215961,-0.533416
27945,,3.896619,-1.637270,8.968761,-0.000447,0.028863,-0.016505,0.753906,-0.383057,0.698975,-0.816778,-0.041304,0.215965,-0.533411
27946,,3.887181,-1.598721,8.940023,0.000132,0.032315,-0.014954,0.758301,-0.380859,0.694336,-0.816779,-0.041305,0.215951,-0.533414
27947,,3.911524,-1.618541,8.948769,0.001479,0.026255,-0.018005,0.758057,-0.376465,0.689941,-0.816782,-0.041331,0.215960,-0.533405
27948,,3.896159,-1.619927,8.990062,-0.000365,0.031357,-0.017753,0.758301,-0.378662,0.696533,-0.816793,-0.041334,0.215952,-0.533391
27949,,3.893644,-1.619299,8.991264,-0.000165,0.030604,-0.015719,0.753662,-0.376465,0.698486,-0.816794,-0.041339,0.215948,-0.533390
27950,,3.907515,-1.582198,8.955153,0.000351,0.029574,-0.019901,0.756104,-0.380859,0.696533,-0.816809,-0.041353,0.215944,-0.533367
27951,,3.918668,-1.603966,9.004146,0.003350,0.031380,-0.017048,0.756104,-0.383057,0.696777,-0.816814,-0.041371,0.215928,-0.533365
27952,,3.935843,-1.585832,8.983095,-0.002595,0.032267,-0.017011,0.753906,-0.378662,0.698730,-0.816819,-0.041364,0.215920,-0.533362
27953,,3.907048,-1.617809,8.988734,0.003981,0.027115,-0.017940,0.758301,-0.380859,0.696533,-0.816821,-0.041398,0.215920,-0.533355
27954,,3.894419,-1.613422,8.957150,-0.001821,0.034969,-0.013426,0.756104,-0.378662,0.694336,-0.816822,-0.041382,0.215900,-0.533363
27955,,3.908346,-1.601258,9.009113,0.001121,0.032291,-0.016305,0.756104,-0.380859,0.696533,-0.816826,-0.041389,0.215886,-0.533362
27956,,3.919011,-1.598509,8.970183,-0.001477,0.028976,-0.015095,0.758301,-0.378662,0.698486,-0.816825,-0.041392,0.215890,-0.533362
27957,,3.920096,-1.616988,8.986284,-0.001680,0.029739,-0.017122,0.756104,-0.380859,0.696533,-0.816829,-0.041395,0.215894,-0.533354
27958,,3.894383,-1.614986,8.994735,-0.001194,0.030711,-0.014314,0.756104,-0.378662,0.692139,-0.816828,-0.041394,0.215890,-0.533357
27959,,3.908570,-1.631384,8.970747,-0.002694,0.029814,-0.015738,0.756104,-0.380859,0.698730,-0.816829,-0.041391,0.215897,-0.533353
27960,,3.922559,-1.619277,9.022663,0.000385,0.034108,-0.014133,0.756104,-0.380859,0.692383,-0.816830,-0.041387,0.215875,-0.533360
27961,,3.902992,-1.576967,8.961141,0.002035,0.029769,-0.016409,0.756104,-0.380859,0.696533,-0.816832,-0.041404,0.215869,-0.533359
27962,,3.926936,-1.596817,8.970175,-0.001758,0.037495,-0.014653,0.753906,-0.378662,0.698730,-0.816837,-0.041384,0.215839,-0.533365
27963,,3.917714,-1.611524,8.953588,0.001946,0.027291,-0.015150,0.749512,-0.378662,0.696533,-0.816833,-0.041406,0.215844,-0.533368
27964,,3.921900,-1.595613,8.972592,-0.001206,0.030738,-0.014297,0.756104,-0.378662,0.696533,-0.816829,-0.041405,0.215839,-0.533375
27965,,3.919415,-1.595046,8.973778,0.001016,0.029852,-0.015019,0.756104,-0.378662,0.696533,-0.816827,-0.041417,0.215836,-0.533378
27966,,3.910367,-1.609826,8.957104,-0.002422,0.031571,-0.014943,0.756104,-0.378662,0.694336,-0.816830,-0.041409,0.215832,-0.533376
27967,,3.904475,-1.590634,8.943229,-0.005016,0.028249,-0.013742,0.756104,-0.383057,0.698975,-0.816825,-0.041398,0.215852,-0.533378
27968,,3.892065,-1.611503,8.999444,0.000765,0.032625,-0.010050,0.760254,-0.372070,0.698242,-0.816811,-0.041396,0.215836,-0.533405
27969,,3.902606,-1.608883,8.960658,-0.002343,0.034074,-0.016185,0.756104,-0.380859,0.696533,-0.816818,-0.041383,0.215824,-0.533400
27970,,3.909914,-1.612064,8.994751,-0.000005,0.029939,-0.013627,0.758057,-0.374268,0.696289,-0.816821,-0.041386,0.215820,-0.533398
27971,,3.907363,-1.611688,8.995927,-0.003444,0.031658,-0.013553,0.756104,-0.380859,0.694336,-0.816818,-0.041373,0.215822,-0.533402
27972,,3.928096,-1.612781,8.989913,-0.000008,0.029947,-0.013621,0.762451,-0.376465,0.698486,-0.816817,-0.041377,0.215819,-0.533404
27973,,3.902219,-1.610826,8.998313,-0.000940,0.032506,-0.013492,0.755859,-0.374268,0.700439,-0.816815,-0.041371,0.215810,-0.533411
27974,,3.922868,-1.611813,8.992369,-0.001422,0.031544,-0.016295,0.756104,-0.380859,0.692383,-0.816829,-0.041366,0.215803,-0.533392
27975,,3.890557,-1.625184,8.982851,-0.001226,0.030786,-0.014264,0.758301,-0.383057,0.698730,-0.816827,-0.041365,0.215802,-0.533396
27976,,3.904455,-1.588343,8.946876,-0.002242,0.030854,-0.012887,0.755859,-0.376465,0.692139,-0.816820,-0.041359,0.215801,-0.533409
27977,,3.905405,-1.607000,8.963002,-0.002525,0.029128,-0.013663,0.758301,-0.383057,0.698730,-0.816814,-0.041356,0.215811,-0.533413
27978,,3.909351,-1.591354,8.982042,-0.002444,0.031625,-0.014908,0.753906,-0.378662,0.698730,-0.816816,-0.041348,0.215807,-0.533412
27979,,3.903784,-1.625253,8.980317,-0.001036,0.030041,-0.012225,0.756104,-0.380859,0.700928,-0.816808,-0.041347,0.215809,-0.533425
27980,,3.901280,-1.624766,8.981493,-0.000220,0.030745,-0.015623,0.758057,-0.376465,0.694092,-0.816809,-0.041352,0.215801,-0.533426
27981,,3.915733,-1.640996,8.957621,-0.001517,0.029082,-0.015026,0.760498,-0.378662,0.689941,-0.816807,-0.041354,0.215808,-0.533426
27982,,3.916268,-1.606242,8.961690,-0.001436,0.031580,-0.016270,0.753906,-0.378662,0.694336,-0.816818,-0.041350,0.215802,-0.533412
27983,,3.913633,-1.605767,8.962926,-0.000962,0.032552,-0.013461,0.753906,-0.380859,0.698730,-0.816815,-0.041345,0.215793,-0.533420
27984,,3.897516,-1.607470,9.004163,-0.000227,0.030764,-0.015611,0.753906,-0.380859,0.694336,-0.816815,-0.041349,0.215786,-0.533423
27985,,3.912023,-1.623875,8.980267,-0.005046,0.028318,-0.013703,0.756104,-0.380859,0.698730,-0.816810,-0.041338,0.215806,-0.533424
27986,,3.912559,-1.589183,8.984314,0.002472,0.030851,-0.013517,0.751709,-0.383057,0.696777,-0.816803,-0.041352,0.215791,-0.533439
27987,,3.907126,-1.622858,8.982582,-0.001527,0.029107,-0.015010,0.758301,-0.378662,0.696533,-0.816801,-0.041355,0.215798,-0.533440
27988,,3.904657,-1.622485,8.983723,-0.002267,0.030905,-0.012854,0.751709,-0.380859,0.694580,-0.816793,-0.041348,0.215796,-0.533453
27989,,3.921931,-1.604641,8.962859,-0.001992,0.032641,-0.012070,0.758057,-0.376465,0.700684,-0.816787,-0.041336,0.215790,-0.533465
27990,,3.938767,-1.611520,9.029936,-0.001450,0.031617,-0.016246,0.760498,-0.380859,0.698730,-0.816793,-0.041334,0.215783,-0.533460
27991,,3.916663,-1.603951,8.965286,-0.004503,0.031805,-0.012127,0.756348,-0.385254,0.694580,-0.816787,-0.041314,0.215787,-0.533469
27992,,3.900506,-1.605922,9.006420,0.000150,0.029269,-0.011534,0.760498,-0.378662,0.694336,-0.816773,-0.041320,0.215786,-0.533490
27993,,3.885388,-1.636068,8.971726,-0.000047,0.030039,-0.013557,0.753662,-0.376465,0.696289,-0.816768,-0.041325,0.215785,-0.533498
27994,,3.902799,-1.618066,8.950866,-0.002473,0.031696,-0.014863,0.758057,-0.376465,0.700684,-0.816773,-0.041315,0.215781,-0.533491
27995,,3.903551,-1.636554,8.967106,0.000030,0.032546,-0.014795,0.755859,-0.376465,0.700684,-0.816774,-0.041315,0.215770,-0.533494
27996,,3.903878,-1.601795,8.971245,-0.001071,0.030112,-0.012177,0.755859,-0.376465,0.694092,-0.816773,-0.041311,0.215768,-0.533497
27997,,3.894944,-1.616753,8.954524,-0.002204,0.033443,-0.014072,0.756104,-0.380859,0.692383,-0.816774,-0.041299,0.215759,-0.533501
27998,,3.921771,-1.602349,8.966763,0.000298,0.034294,-0.014002,0.753662,-0.376465,0.698486,-0.816777,-0.041293,0.215737,-0.533506
27999,,3.916073,-1.636092,8.965154,-0.001190,0.033393,-0.015436,0.756104,-0.378662,0.698730,-0.816780,-0.041287,0.215725,-0.533505
28000,,3.916313,-1.601414,8.969315,-0.002291,0.030957,-0.012821,0.755859,-0.372070,0.696045,-0.816778,-0.041278,0.215724,-0.533510
28001,,3.893871,-1.618555,8.992460,-0.000528,0.029108,-0.016340,0.756104,-0.383057,0.698975,-0.816780,-0.041286,0.215727,-0.533505
28002,,3.914809,-1.619367,8.986635,-0.000064,0.030079,-0.013530,0.760498,-0.380859,0.694336,-0.816779,-0.041289,0.215723,-0.533508
28003,,3.882108,-1.579616,8.964790,-0.001005,0.032644,-0.013399,0.751465,-0.376465,0.698486,-0.816777,-0.041283,0.215714,-0.533516
28004,,3.932923,-1.619884,8.982113,-0.002299,0.030974,-0.012810,0.753662,-0.372070,0.698242,-0.816774,-0.041274,0.215713,-0.533521
28005,,3.903702,-1.599273,8.975192,-0.002573,0.029244,-0.013591,0.755859,-0.374268,0.698242,-0.816768,-0.041271,0.215722,-0.533526
28006,,3.901340,-1.598860,8.976293,-0.000343,0.028361,-0.014302,0.755859,-0.376465,0.698486,-0.816774,-0.041277,0.215726,-0.533515
28007,,3.925676,-1.618792,8.985479,-0.003790,0.030079,-0.014241,0.758301,-0.380859,0.700928,-0.816772,-0.041267,0.215734,-0.533516
28008,,3.900013,-1.617099,8.993474,-0.000425,0.025865,-0.013056,0.753662,-0.374268,0.691895,-0.816765,-0.041279,0.215748,-0.533520
28009,,3.894094,-1.597935,8.979604,-0.006889,0.036040,-0.014635,0.758301,-0.378662,0.698486,-0.816771,-0.041241,0.215741,-0.533517
28010,,3.918119,-1.618105,8.988901,-0.002582,0.029264,-0.013577,0.758301,-0.378662,0.696533,-0.816772,-0.041236,0.215748,-0.533514
28011,,3.906181,-1.614109,8.957029,-0.001563,0.029210,-0.014942,0.758301,-0.378662,0.700684,-0.816770,-0.041238,0.215754,-0.533514
28012,,3.913155,-1.617367,8.991196,-0.002046,0.032744,-0.012003,0.753662,-0.372070,0.693848,-0.816769,-0.041224,0.215745,-0.533519
28013,,3.907236,-1.598049,8.977359,-0.001566,0.029218,-0.014937,0.758301,-0.380859,0.696533,-0.816767,-0.041226,0.215751,-0.533520
28014,,3.898577,-1.613087,8.960525,-0.003341,0.031075,-0.011414,0.751709,-0.378662,0.694336,-0.816765,-0.041210,0.215753,-0.533524
28015,,3.925669,-1.598895,8.972718,-0.004072,0.028376,-0.015005,0.753906,-0.380859,0.698730,-0.816763,-0.041205,0.215769,-0.533521
28016,,3.903248,-1.616237,8.995704,-0.002784,0.030059,-0.015584,0.756104,-0.378662,0.692139,-0.816761,-0.041201,0.215771,-0.533523
28017,,3.914553,-1.613612,8.957024,-0.002058,0.032766,-0.011987,0.758301,-0.383057,0.698730,-0.816755,-0.041189,0.215765,-0.533535
28018,,3.905744,-1.628626,8.940269,-0.002519,0.031805,-0.014793,0.753906,-0.378662,0.694336,-0.816757,-0.041180,0.215761,-0.533536
28019,,3.886042,-1.611728,8.966213,-0.003888,0.027622,-0.012972,0.758301,-0.380859,0.698730,-0.816748,-0.041174,0.215780,-0.533541
28020,,3.939969,-1.617662,8.986591,-0.001577,0.029249,-0.014916,0.758301,-0.378662,0.692139,-0.816748,-0.041176,0.215783,-0.533540
28021,,3.914065,-1.615960,8.994599,-0.002525,0.031819,-0.014784,0.756348,-0.385254,0.696777,-0.816748,-0.041167,0.215782,-0.533541
28022,,3.902076,-1.612059,8.962745,-0.003817,0.030143,-0.014201,0.751953,-0.385498,0.694824,-0.816745,-0.041157,0.215788,-0.533544
28023,,3.920245,-1.647430,8.954067,-0.003819,0.030147,-0.014199,0.758789,-0.389648,0.699219,-0.816743,-0.041147,0.215796,-0.533545
28024,,3.897077,-1.611598,8.965003,-0.002341,0.031060,-0.012752,0.756104,-0.380859,0.694336,-0.816725,-0.041142,0.215794,-0.533574
28025,,3.918057,-1.612562,8.959307,-0.003065,0.028361,-0.016345,0.753906,-0.380859,0.698730,-0.816726,-0.041142,0.215808,-0.533566
28026,,3.895526,-1.629872,8.982270,-0.002535,0.031842,-0.014768,0.758301,-0.378662,0.689941,-0.816725,-0.041133,0.215803,-0.533570
28027,,3.927053,-1.609476,8.921816,-0.001324,0.031018,-0.014108,0.756104,-0.383057,0.696777,-0.816723,-0.041131,0.215801,-0.533574
28028,,3.887083,-1.610284,8.969577,-0.004852,0.030224,-0.012821,0.756104,-0.380859,0.696533,-0.816718,-0.041114,0.215811,-0.533579
28029,,3.931345,-1.612700,8.957153,-0.003565,0.031911,-0.013395,0.756348,-0.387451,0.697021,-0.816715,-0.041099,0.215811,-0.533584
28030,,3.911931,-1.649056,8.995186,-0.002543,0.031860,-0.014756,0.756104,-0.378662,0.696533,-0.816710,-0.041092,0.215807,-0.533595
28031,,3.912134,-1.614220,8.999362,0.002119,0.029322,-0.014145,0.756104,-0.380859,0.698730,-0.816706,-0.041108,0.215803,-0.533602
28032,,3.890991,-1.606588,8.934420,-0.004860,0.030241,-0.012811,0.758057,-0.376465,0.694092,-0.816702,-0.041091,0.215811,-0.533606
28033,,3.888633,-1.606231,8.935510,-0.001026,0.028285,-0.019051,0.749512,-0.378662,0.698730,-0.816710,-0.041103,0.215819,-0.533590
28034,,3.895574,-1.609408,8.969672,-0.002175,0.030330,-0.010703,0.756104,-0.383057,0.696777,-0.816701,-0.041094,0.215820,-0.533603
28035,,3.916544,-1.610485,8.964033,-0.005317,0.029288,-0.015613,0.756348,-0.385254,0.698975,-0.816702,-0.041081,0.215836,-0.533597
28036,,3.917471,-1.629151,8.980155,-0.001604,0.029318,-0.014869,0.756104,-0.378662,0.694336,-0.816694,-0.041084,0.215839,-0.533607
28037,,3.924303,-1.632255,9.014377,-0.000319,0.031008,-0.015441,0.753906,-0.378662,0.696533,-0.816695,-0.041088,0.215834,-0.533607
28038,,3.909157,-1.609189,8.967490,-0.001346,0.031067,-0.014075,0.751465,-0.376465,0.696289,-0.816696,-0.041084,0.215830,-0.533608
28039,,3.915839,-1.612411,9.001750,-0.002562,0.031901,-0.014730,0.751709,-0.383057,0.696777,-0.816696,-0.041075,0.215828,-0.533609
28040,,3.907326,-1.627404,8.984891,-0.002825,0.030165,-0.015516,0.755859,-0.376465,0.692139,-0.816694,-0.041071,0.215830,-0.533612
28041,,3.904744,-1.626945,8.986096,-0.000065,0.032767,-0.014638,0.749512,-0.378662,0.696533,-0.816695,-0.041069,0.215818,-0.533615
28042,,3.908193,-1.611139,9.005300,-0.003089,0.028433,-0.016301,0.753906,-0.378662,0.694336,-0.816698,-0.041068,0.215828,-0.533606
28043,,3.914050,-1.623739,8.948622,-0.001170,0.030313,-0.012040,0.756104,-0.380859,0.696533,-0.816690,-0.041066,0.215829,-0.533619
28044,,3.917531,-1.607993,8.967805,-0.001619,0.029353,-0.014847,0.753906,-0.380859,0.694336,-0.816689,-0.041067,0.215833,-0.533619
28045,,3.932666,-1.624119,8.944220,-0.001620,0.029357,-0.014844,0.758301,-0.383057,0.694580,-0.816687,-0.041068,0.215838,-0.533620
28046,,3.921937,-1.610798,9.003125,-0.002650,0.029414,-0.013481,0.756104,-0.380859,0.696533,-0.816679,-0.041064,0.215845,-0.533629
28047,,3.884285,-1.639803,8.974809,0.000617,0.028482,-0.015541,0.751709,-0.380859,0.698730,-0.816678,-0.041078,0.215848,-0.533629
28048,,3.917005,-1.609869,9.005438,-0.005194,0.034379,-0.018041,0.751709,-0.378662,0.698730,-0.816688,-0.041056,0.215839,-0.533618
28049,,3.908452,-1.624842,8.988612,-0.000156,0.030286,-0.013383,0.756104,-0.380859,0.696533,-0.816683,-0.041059,0.215837,-0.533627
28050,,3.926194,-1.606548,8.968097,-0.000602,0.029326,-0.016191,0.756104,-0.380859,0.698730,-0.816684,-0.041066,0.215837,-0.533624
28051,,3.900325,-1.604814,8.975871,-0.001817,0.030161,-0.016847,0.758301,-0.383057,0.696777,-0.816688,-0.041067,0.215840,-0.533617
28052,,3.930338,-1.609117,9.003569,-0.001305,0.033651,-0.015261,0.753906,-0.378662,0.696533,-0.816691,-0.041059,0.215824,-0.533619
28053,,3.927625,-1.608704,9.004826,-0.002592,0.031965,-0.014690,0.753906,-0.380859,0.694336,-0.816692,-0.041049,0.215822,-0.533620
28054,,3.913359,-1.639058,8.969885,-0.002851,0.030227,-0.015478,0.753906,-0.380859,0.694336,-0.816692,-0.041044,0.215825,-0.533618
28055,,3.916766,-1.623389,8.989068,-0.002668,0.029453,-0.013457,0.762695,-0.383057,0.694580,-0.816687,-0.041040,0.215833,-0.533624
28056,,3.920287,-1.607601,9.008220,-0.000868,0.027610,-0.016964,0.756348,-0.385254,0.694580,-0.816689,-0.041051,0.215842,-0.533616
28057,,3.911960,-1.622524,8.991317,-0.002161,0.032948,-0.011868,0.749512,-0.383301,0.694580,-0.816683,-0.041037,0.215835,-0.533629
28058,,3.900190,-1.618479,8.959450,-0.000544,0.031886,-0.017392,0.758301,-0.380859,0.698730,-0.816681,-0.041042,0.215824,-0.533637
28059,,3.909210,-1.587137,8.996839,0.001107,0.032024,-0.013919,0.758545,-0.383057,0.703125,-0.816678,-0.041047,0.215812,-0.533645
28060,,3.915209,-1.599456,8.940328,-0.000364,0.031116,-0.015368,0.756104,-0.383057,0.696777,-0.816680,-0.041049,0.215804,-0.533645
28061,,3.910533,-1.623744,9.029423,0.002132,0.031983,-0.015271,0.751709,-0.383057,0.696777,-0.816681,-0.041059,0.215789,-0.533649
28062,,3.898736,-1.619340,8.997633,0.002201,0.034512,-0.016493,0.751709,-0.378906,0.689941,-0.816682,-0.041066,0.215760,-0.533659
28063,,3.916159,-1.600890,8.977380,-0.001330,0.033706,-0.015227,0.756104,-0.380859,0.703125,-0.816686,-0.041058,0.215747,-0.533659
28064,,3.911040,-1.634586,8.975597,0.002056,0.029473,-0.014036,0.753906,-0.378662,0.696533,-0.816681,-0.041073,0.215740,-0.533669
28065,,3.910922,-1.599722,8.979871,-0.002549,0.034546,-0.015881,0.753906,-0.383057,0.696777,-0.816687,-0.041058,0.215727,-0.533665
28066,,3.908241,-1.599274,8.981118,-0.000193,0.030363,-0.013333,0.756104,-0.378662,0.692139,-0.816680,-0.041061,0.215722,-0.533678
28067,,3.900127,-1.614091,8.964159,-0.000883,0.027658,-0.016934,0.756104,-0.378662,0.700684,-0.816681,-0.041073,0.215732,-0.533671
28068,,3.897823,-1.613587,8.965252,-0.001664,0.029458,-0.014782,0.756104,-0.378662,0.694336,-0.816683,-0.041072,0.215735,-0.533666
28069,,3.895335,-1.613165,8.966409,-0.001414,0.031208,-0.013985,0.751709,-0.380859,0.696533,-0.816681,-0.041069,0.215733,-0.533671
28070,,3.901717,-1.616295,9.000763,-0.001598,0.031994,-0.015999,0.755859,-0.376465,0.692139,-0.816685,-0.041065,0.215725,-0.533669
28071,,3.917038,-1.632213,8.977365,0.000577,0.028590,-0.015468,0.756104,-0.383057,0.696777,-0.816683,-0.041078,0.215728,-0.533669
28072,,3.911299,-1.612744,8.963490,-0.002817,0.032835,-0.016654,0.749268,-0.376465,0.694336,-0.816692,-0.041066,0.215720,-0.533660
28073,,3.917651,-1.615869,8.997858,-0.000209,0.030394,-0.013312,0.758057,-0.376465,0.700684,-0.816687,-0.041069,0.215719,-0.533668
28074,,3.915263,-1.615296,8.999000,-0.001074,0.028471,-0.018932,0.753906,-0.378662,0.696533,-0.816700,-0.041078,0.215723,-0.533645
28075,,3.880414,-1.610115,8.973424,-0.001246,0.030452,-0.011951,0.753906,-0.380859,0.700928,-0.816692,-0.041075,0.215724,-0.533658
28076,,3.928189,-1.630918,8.976745,-0.002893,0.030324,-0.015421,0.753662,-0.374268,0.698486,-0.816693,-0.041069,0.215725,-0.533656
28077,,3.902239,-1.629357,8.984326,-0.000648,0.029448,-0.016112,0.751953,-0.385254,0.696777,-0.816694,-0.041076,0.215728,-0.533653
28078,,3.917516,-1.645302,8.961009,-0.001366,0.033779,-0.015180,0.758301,-0.378662,0.692139,-0.816696,-0.041067,0.215712,-0.533657
28079,,3.893750,-1.609384,8.971731,-0.000403,0.031205,-0.015310,0.751953,-0.385254,0.698975,-0.816697,-0.041069,0.215707,-0.533657
28080,,3.941385,-1.629914,8.975226,-0.000338,0.033742,-0.016528,0.753662,-0.376465,0.694092,-0.816701,-0.041067,0.215688,-0.533659
28081,,3.906517,-1.624690,8.949643,-0.000722,0.026935,-0.014880,0.758301,-0.380859,0.698730,-0.816696,-0.041078,0.215701,-0.533660
28082,,3.918565,-1.612351,9.002098,-0.000162,0.032967,-0.014506,0.753906,-0.378662,0.694336,-0.816701,-0.041074,0.215686,-0.533659
28083,,3.910252,-1.627055,8.985273,0.002084,0.032093,-0.015194,0.753906,-0.380859,0.692383,-0.816702,-0.041084,0.215671,-0.533663
28084,,3.916442,-1.629957,9.019730,-0.001808,0.032846,-0.017973,0.758301,-0.380859,0.696533,-0.816712,-0.041079,0.215660,-0.533653
28085,,3.905035,-1.625954,8.987741,-0.002911,0.030365,-0.015397,0.758301,-0.383057,0.696777,-0.816712,-0.041073,0.215665,-0.533650
28086,,3.905146,-1.591407,8.991819,-0.005901,0.026002,-0.017093,0.751465,-0.376465,0.694336,-0.816713,-0.041068,0.215694,-0.533637
28087,,3.894931,-1.641035,8.971630,-0.006446,0.029551,-0.014145,0.756104,-0.383057,0.696777,-0.816711,-0.041049,0.215712,-0.533636
28088,,3.903784,-1.610014,9.008935,-0.000914,0.027750,-0.016875,0.758301,-0.380859,0.696533,-0.816712,-0.041060,0.215719,-0.533630
28089,,3.910417,-1.622402,8.952450,-0.002609,0.034667,-0.015807,0.758301,-0.378662,0.698486,-0.816718,-0.041044,0.215706,-0.533627
28090,,3.918899,-1.591067,8.989973,0.001823,0.030379,-0.015965,0.757813,-0.369873,0.693848,-0.816724,-0.041056,0.215696,-0.533621
28091,,3.905452,-1.620989,8.954873,0.001153,0.027672,-0.019571,0.753906,-0.380859,0.694336,-0.816732,-0.041079,0.215700,-0.533605
28092,,3.917378,-1.608498,9.007374,-0.001647,0.032100,-0.015932,0.756104,-0.378662,0.696533,-0.816746,-0.041071,0.215693,-0.533587
28093,,3.909304,-1.623427,8.990420,-0.001714,0.029568,-0.014712,0.756104,-0.380859,0.696533,-0.816744,-0.041071,0.215698,-0.533588
28094,,3.904452,-1.657292,8.988537,-0.001651,0.032109,-0.015926,0.756104,-0.380859,0.694336,-0.816750,-0.041066,0.215690,-0.533583
28095,,3.890019,-1.634212,8.941438,0.000354,0.029486,-0.017409,0.758301,-0.380859,0.700928,-0.816755,-0.041078,0.215689,-0.533575
28096,,3.919962,-1.638187,8.969486,-0.000506,0.028748,-0.014041,0.758057,-0.376465,0.696289,-0.816750,-0.041084,0.215692,-0.533580
28097,,3.890784,-1.617585,8.961871,0.001808,0.030413,-0.015942,0.749512,-0.378906,0.692139,-0.816752,-0.041098,0.215684,-0.533580
28098,,3.888122,-1.617005,8.963131,-0.002633,0.034712,-0.015780,0.758301,-0.380859,0.696533,-0.816761,-0.041081,0.215669,-0.533573
28099,,3.885629,-1.616417,8.964318,0.001320,0.026921,-0.017532,0.760498,-0.383057,0.698730,-0.816763,-0.041104,0.215676,-0.533565
28100,,3.939149,-1.621272,8.986134,0.000765,0.030472,-0.014582,0.756348,-0.385254,0.692627,-0.816762,-0.041111,0.215669,-0.533569
28101,,3.913008,-1.619703,8.993623,-0.001667,0.032142,-0.015907,0.758301,-0.380859,0.696533,-0.816766,-0.041106,0.215663,-0.533566
28102,,3.930788,-1.601265,8.973508,-0.000454,0.031314,-0.015240,0.756104,-0.383057,0.694580,-0.816763,-0.041108,0.215656,-0.533573
28103,,3.907750,-1.618640,8.996100,-0.000216,0.033070,-0.014438,0.756104,-0.380859,0.703125,-0.816764,-0.041105,0.215643,-0.533578
28104,,3.916927,-1.596388,8.942790,0.004047,0.029569,-0.016605,0.753906,-0.380859,0.696533,-0.816763,-0.041132,0.215629,-0.533583
28105,,3.931477,-1.602699,9.010602,0.000259,0.036584,-0.012834,0.753662,-0.374268,0.700439,-0.816763,-0.041120,0.215601,-0.533595
28106,,3.911265,-1.594975,8.945520,0.002270,0.033961,-0.014315,0.755859,-0.376465,0.696289,-0.816767,-0.041123,0.215575,-0.533599
28107,,3.894450,-1.649962,8.998364,0.003482,0.033133,-0.013647,0.756104,-0.380859,0.694336,-0.816765,-0.041134,0.215552,-0.533611
28108,,3.897296,-1.633868,9.017767,-0.000705,0.029590,-0.016023,0.753906,-0.380859,0.696533,-0.816770,-0.041138,0.215552,-0.533603
28109,,3.906765,-1.611971,8.964310,-0.003023,0.027928,-0.014123,0.753906,-0.383057,0.696777,-0.816765,-0.041137,0.215567,-0.533605
28110,,3.907806,-1.630648,8.980378,-0.004716,0.025260,-0.016385,0.760498,-0.380859,0.696533,-0.816758,-0.041140,0.215595,-0.533604
28111,,3.926149,-1.612411,8.960049,-0.003441,0.026973,-0.016930,0.756104,-0.380859,0.696533,-0.816759,-0.041143,0.215615,-0.533594
28112,,3.900197,-1.610986,8.967346,-0.000475,0.031361,-0.015211,0.749512,-0.380859,0.696533,-0.816762,-0.041143,0.215608,-0.533593
28113,,3.897674,-1.610322,8.968562,0.001777,0.030489,-0.015890,0.753906,-0.378662,0.698730,-0.816763,-0.041157,0.215599,-0.533593
28114,,3.918731,-1.610542,8.963632,0.002188,0.031456,-0.013075,0.756104,-0.380859,0.694336,-0.816754,-0.041167,0.215583,-0.533612
28115,,3.897973,-1.593521,8.989187,-0.000894,0.030412,-0.018015,0.758301,-0.380859,0.694336,-0.816762,-0.041172,0.215582,-0.533601
28116,,3.913653,-1.609251,8.966082,0.000967,0.032300,-0.013734,0.756104,-0.378662,0.698730,-0.816760,-0.041175,0.215568,-0.533609
28117,,3.893745,-1.645629,9.003667,-0.001526,0.031426,-0.013850,0.758301,-0.380859,0.696533,-0.816757,-0.041170,0.215565,-0.533615
28118,,3.937431,-1.593919,8.980536,-0.002979,0.030510,-0.015313,0.758301,-0.378662,0.696533,-0.816760,-0.041162,0.215567,-0.533609
28119,,3.900752,-1.623461,8.951414,-0.003042,0.027968,-0.014100,0.756104,-0.380859,0.700928,-0.816755,-0.041161,0.215583,-0.533611
28120,,3.910092,-1.645521,9.000872,-0.000552,0.028851,-0.013977,0.758301,-0.383057,0.694580,-0.816753,-0.041166,0.215585,-0.533613
28121,,3.904504,-1.625962,8.986942,0.001762,0.030527,-0.015865,0.753906,-0.383057,0.698975,-0.816754,-0.041180,0.215577,-0.533613
28122,,3.907138,-1.609987,9.006394,-0.002693,0.034831,-0.015711,0.758545,-0.387451,0.698975,-0.816755,-0.041164,0.215561,-0.533620
28123,,3.919699,-1.606968,8.968205,-0.002182,0.028737,-0.017447,0.753906,-0.380859,0.698730,-0.816760,-0.041168,0.215570,-0.533609
28124,,3.928788,-1.628896,9.017791,-0.000267,0.033173,-0.014373,0.751465,-0.376465,0.696289,-0.816753,-0.041166,0.215554,-0.533626
28125,,3.923080,-1.609383,9.003907,0.000479,0.028833,-0.015308,0.753906,-0.380859,0.694336,-0.816751,-0.041178,0.215556,-0.533627
28126,,3.920567,-1.608901,9.005087,-0.002763,0.032302,-0.014490,0.758057,-0.376465,0.694092,-0.816751,-0.041167,0.215551,-0.533630
28127,,3.909507,-1.605174,8.972973,-0.005255,0.031426,-0.014611,0.747314,-0.380859,0.698730,-0.816752,-0.041148,0.215558,-0.533628
28128,,3.901764,-1.620280,8.955910,-0.000568,0.028887,-0.013954,0.760498,-0.380859,0.698730,-0.816747,-0.041153,0.215560,-0.533634
28129,,3.904706,-1.604269,8.975225,0.001688,0.028016,-0.014630,0.754150,-0.385254,0.698975,-0.816742,-0.041172,0.215562,-0.533639
28130,,3.944313,-1.620881,8.946075,-0.000340,0.030651,-0.013147,0.753906,-0.380859,0.692383,-0.816732,-0.041174,0.215557,-0.533655
28131,,3.902778,-1.621821,8.992783,0.004291,0.034009,-0.016913,0.751465,-0.376465,0.700684,-0.816740,-0.041190,0.215528,-0.533655
28132,,3.897959,-1.655241,8.991037,0.001972,0.032338,-0.015026,0.753662,-0.376465,0.694092,-0.816741,-0.041198,0.215509,-0.533660
28133,,3.902655,-1.604855,9.013585,-0.000520,0.031460,-0.015149,0.758301,-0.380859,0.696533,-0.816742,-0.041199,0.215503,-0.533661
28134,,3.918572,-1.620605,8.990541,-0.000752,0.029707,-0.015949,0.758545,-0.385498,0.690430,-0.816746,-0.041202,0.215503,-0.533654
28135,,3.889439,-1.600386,8.982545,-0.003071,0.028033,-0.014064,0.756348,-0.383057,0.703125,-0.816741,-0.041201,0.215518,-0.533656
28136,,3.910671,-1.600717,8.977679,0.001561,0.031396,-0.017825,0.753906,-0.383057,0.696777,-0.816741,-0.041215,0.215505,-0.533660
28137,,3.929613,-1.635238,8.969855,-0.000300,0.033236,-0.014333,0.755859,-0.376465,0.694092,-0.816742,-0.041211,0.215491,-0.533665
28138,,3.900151,-1.614873,8.962013,-0.000703,0.032280,-0.017143,0.755859,-0.376465,0.700684,-0.816749,-0.041210,0.215480,-0.533658
28139,,3.902816,-1.598836,8.981431,0.002070,0.029022,-0.011787,0.756104,-0.378662,0.698730,-0.816738,-0.041225,0.215478,-0.533676
28140,,3.918679,-1.614571,8.958473,-0.001523,0.034086,-0.014992,0.753906,-0.378662,0.696533,-0.816747,-0.041212,0.215461,-0.533668
28141,,3.924303,-1.617532,8.993069,0.000679,0.030663,-0.014458,0.753906,-0.380859,0.698730,-0.816745,-0.041219,0.215456,-0.533673
28142,,3.898069,-1.616052,9.000268,-0.000711,0.032300,-0.017131,0.758301,-0.380859,0.696533,-0.816751,-0.041219,0.215444,-0.533669
28143,,3.913928,-1.631868,8.977324,-0.002802,0.032381,-0.014446,0.756104,-0.380859,0.696533,-0.816752,-0.041207,0.215440,-0.533671
28144,,3.905298,-1.593521,8.948219,0.001434,0.026324,-0.015390,0.756104,-0.380859,0.694336,-0.816747,-0.041229,0.215448,-0.533672
28145,,3.905921,-1.611886,8.964527,-0.002751,0.034947,-0.015644,0.756104,-0.383057,0.700928,-0.816753,-0.041212,0.215434,-0.533670
28146,,3.903380,-1.611454,8.965711,-0.000830,0.027206,-0.014712,0.753662,-0.374268,0.691895,-0.816745,-0.041223,0.215444,-0.533678
28147,,3.904100,-1.629846,8.981969,-0.000550,0.031527,-0.015107,0.756104,-0.380859,0.698730,-0.816746,-0.041224,0.215438,-0.533679
28148,,3.898488,-1.610389,8.968030,-0.000778,0.029772,-0.015909,0.755859,-0.374268,0.694092,-0.816752,-0.041227,0.215438,-0.533670
28149,,3.919661,-1.610681,8.963301,-0.000555,0.031536,-0.015101,0.753906,-0.380859,0.696533,-0.816752,-0.041227,0.215432,-0.533671
28150,,3.915053,-1.644360,8.961460,0.001930,0.032429,-0.014964,0.755859,-0.374268,0.694092,-0.816758,-0.041234,0.215414,-0.533670
28151,,3.914455,-1.609266,8.965829,0.001703,0.030674,-0.015767,0.758301,-0.380859,0.703125,-0.816759,-0.041246,0.215405,-0.533670
28152,,3.891340,-1.626694,8.988076,-0.000562,0.031551,-0.015093,0.753662,-0.376465,0.694092,-0.816767,-0.041244,0.215397,-0.533662
28153,,3.909412,-1.608065,8.968245,-0.000788,0.029795,-0.015896,0.755859,-0.376465,0.696289,-0.816768,-0.041249,0.215398,-0.533659
28154,,3.878188,-1.622156,8.957058,-0.000397,0.030760,-0.013079,0.755859,-0.376465,0.696289,-0.816769,-0.041247,0.215394,-0.533659
28155,,3.931136,-1.626663,8.979911,0.000309,0.032329,-0.018430,0.751709,-0.383057,0.698975,-0.816780,-0.041253,0.215382,-0.533648
28156,,3.909822,-1.609714,9.005311,0.000699,0.033295,-0.015613,0.758545,-0.385254,0.694580,-0.816782,-0.041254,0.215362,-0.533652
28157,,3.904106,-1.590238,8.991417,-0.002012,0.030649,-0.016554,0.758545,-0.385254,0.698975,-0.816786,-0.041252,0.215363,-0.533646
28158,,3.923318,-1.624872,8.983654,-0.000576,0.031580,-0.015075,0.756104,-0.380859,0.696533,-0.816778,-0.041255,0.215356,-0.533660
28159,,3.898947,-1.589274,8.993826,-0.001625,0.031620,-0.013734,0.751709,-0.380859,0.698730,-0.816776,-0.041249,0.215352,-0.533666
28160,,3.913163,-1.639330,8.967827,-0.000970,0.030629,-0.017883,0.755859,-0.374268,0.694092,-0.816779,-0.041254,0.215348,-0.533662
28161,,3.893987,-1.588260,8.996153,-0.000467,0.028230,-0.011859,0.754150,-0.385254,0.698975,-0.816768,-0.041260,0.215356,-0.533676
28162,,3.910169,-1.604115,8.973240,-0.002849,0.032470,-0.014395,0.753906,-0.380859,0.692383,-0.816768,-0.041247,0.215350,-0.533679
28163,,3.902642,-1.619043,8.956184,0.000241,0.029807,-0.017204,0.752197,-0.389648,0.701416,-0.816772,-0.041258,0.215348,-0.533672
28164,,3.908226,-1.621831,8.990779,0.000460,0.031574,-0.016394,0.753906,-0.378662,0.692139,-0.816762,-0.041268,0.215336,-0.533692
28165,,3.902676,-1.602271,8.976830,0.000405,0.029014,-0.015192,0.753906,-0.383057,0.698975,-0.816760,-0.041279,0.215338,-0.533694
28166,,3.903363,-1.620587,8.993116,-0.000813,0.029855,-0.015859,0.753906,-0.380859,0.698730,-0.816757,-0.041284,0.215337,-0.533698
28167,,3.900925,-1.619891,8.994299,0.002886,0.029916,-0.015045,0.751709,-0.383057,0.698975,-0.816755,-0.041303,0.215329,-0.533703
28168,,3.915868,-1.582393,8.959456,-0.005129,0.033368,-0.013714,0.758301,-0.380859,0.696533,-0.816748,-0.041280,0.215324,-0.533718
28169,,3.922754,-1.638546,9.006004,0.003276,0.024601,-0.018799,0.751953,-0.387451,0.697021,-0.816750,-0.041318,0.215336,-0.533707
28170,,3.914200,-1.600048,8.976891,-0.002818,0.035074,-0.015572,0.758301,-0.383057,0.698730,-0.816746,-0.041303,0.215319,-0.533721
28171,,3.911556,-1.599629,8.978118,-0.000656,0.029075,-0.013840,0.756104,-0.380859,0.696533,-0.816741,-0.041308,0.215323,-0.533727
28172,,3.909200,-1.599151,8.979229,-0.002259,0.028955,-0.017321,0.753662,-0.376465,0.694092,-0.816742,-0.041312,0.215330,-0.533722
28173,,3.886174,-1.616794,9.001239,-0.000827,0.029887,-0.015840,0.749268,-0.376465,0.694336,-0.816743,-0.041316,0.215331,-0.533720
28174,,3.926366,-1.633171,8.972616,-0.001046,0.028127,-0.016646,0.758301,-0.378662,0.698486,-0.816748,-0.041324,0.215338,-0.533709
28175,,3.917822,-1.594751,8.943490,0.000435,0.031628,-0.016359,0.751709,-0.383057,0.696777,-0.816752,-0.041329,0.215329,-0.533706
28176,,3.902530,-1.615770,8.999014,-0.000617,0.031666,-0.015022,0.756104,-0.380859,0.700928,-0.816750,-0.041329,0.215320,-0.533713
28177,,3.923906,-1.615953,8.994421,-0.001268,0.026376,-0.017447,0.760498,-0.380859,0.694336,-0.816751,-0.041343,0.215336,-0.533703
28178,,3.889816,-1.611219,8.967859,-0.000407,0.033440,-0.014207,0.753906,-0.380859,0.696533,-0.816752,-0.041338,0.215321,-0.533709
28179,,3.918884,-1.614907,8.996798,-0.000674,0.029110,-0.013818,0.754150,-0.385254,0.696777,-0.816746,-0.041343,0.215325,-0.533714
28180,,3.911584,-1.629876,8.979669,-0.002058,0.030756,-0.016491,0.756104,-0.383301,0.690186,-0.816741,-0.041343,0.215323,-0.533723
28181,,3.869506,-1.621748,8.919685,-0.000629,0.031689,-0.015007,0.755859,-0.374268,0.694092,-0.816742,-0.041342,0.215317,-0.533725
28182,,3.927275,-1.610728,8.961189,-0.002111,0.028194,-0.015291,0.755859,-0.374268,0.700439,-0.816742,-0.041344,0.215328,-0.533720
28183,,3.904193,-1.628552,8.983125,-0.003116,0.030802,-0.015150,0.758301,-0.380859,0.694336,-0.816742,-0.041336,0.215332,-0.533719
28184,,3.943070,-1.591668,8.942674,0.001798,0.030029,-0.013655,0.760498,-0.380859,0.694336,-0.816744,-0.041346,0.215324,-0.533718
28185,,3.919826,-1.609213,8.964722,-0.000803,0.032515,-0.016999,0.751709,-0.380859,0.698730,-0.816751,-0.041345,0.215314,-0.533712
28186,,3.915404,-1.643105,8.962834,-0.002910,0.032582,-0.014331,0.756104,-0.378662,0.692139,-0.816749,-0.041333,0.215309,-0.533718
28187,,3.898629,-1.611140,9.006268,-0.000478,0.030912,-0.012985,0.751709,-0.380859,0.696533,-0.816743,-0.041333,0.215305,-0.533728
28188,,3.907247,-1.623323,8.950071,-0.000857,0.029957,-0.015797,0.756104,-0.380859,0.696533,-0.816743,-0.041337,0.215305,-0.533729
28189,,3.912582,-1.626094,8.984731,0.001459,0.031667,-0.017646,0.751709,-0.380859,0.698730,-0.816750,-0.041348,0.215292,-0.533722
28190,,3.899063,-1.603081,8.937401,-0.000438,0.033501,-0.014169,0.758301,-0.378662,0.698486,-0.816746,-0.041343,0.215275,-0.533735
28191,,3.883381,-1.624230,8.992924,-0.000440,0.033506,-0.014166,0.755859,-0.376465,0.698486,-0.816746,-0.041338,0.215261,-0.533741
28192,,3.904609,-1.624379,8.988509,-0.001076,0.028208,-0.016597,0.751709,-0.378662,0.700684,-0.816755,-0.041344,0.215268,-0.533725
28193,,3.891336,-1.601468,8.941057,-0.000820,0.032556,-0.016974,0.753906,-0.383057,0.696777,-0.816762,-0.041343,0.215258,-0.533718
28194,,3.899669,-1.623163,8.990873,0.001566,0.028309,-0.014435,0.753662,-0.372070,0.696045,-0.816752,-0.041361,0.215257,-0.533733
28195,,3.925751,-1.607802,9.004746,-0.002088,0.030827,-0.016450,0.758301,-0.380859,0.694336,-0.816756,-0.041358,0.215257,-0.533727
28196,,3.899490,-1.606609,9.011501,-0.001037,0.030803,-0.017777,0.753662,-0.376465,0.696289,-0.816771,-0.041358,0.215254,-0.533705
28197,,3.912954,-1.603263,8.973672,-0.000666,0.031768,-0.014959,0.756104,-0.380859,0.696533,-0.816771,-0.041358,0.215247,-0.533706
28198,,3.905679,-1.618296,8.956559,-0.003149,0.030871,-0.015112,0.762451,-0.376465,0.694092,-0.816774,-0.041348,0.215249,-0.533703
28199,,3.910826,-1.621395,8.991219,-0.001725,0.031806,-0.013623,0.753662,-0.376465,0.698486,-0.816771,-0.041341,0.215245,-0.533709
28200,,3.908477,-1.620957,8.992319,-0.001135,0.025665,-0.015386,0.755859,-0.376465,0.694092,-0.816777,-0.041352,0.215264,-0.533692
28201,,3.905965,-1.620682,8.993460,-0.005012,0.035290,-0.012822,0.760498,-0.383057,0.698730,-0.816776,-0.041322,0.215255,-0.533699
28202,,3.924143,-1.602016,8.973958,0.001180,0.027386,-0.017225,0.758057,-0.376465,0.694092,-0.816780,-0.041341,0.215259,-0.533689
28203,,3.898164,-1.600745,8.980556,-0.000932,0.027447,-0.014565,0.751709,-0.383057,0.698975,-0.816775,-0.041350,0.215271,-0.533692
28204,,3.898743,-1.619207,8.996859,-0.001737,0.031829,-0.013610,0.751465,-0.374268,0.696289,-0.816772,-0.041343,0.215265,-0.533700
28205,,3.915256,-1.634874,8.974238,-0.000522,0.030995,-0.012933,0.756104,-0.380859,0.700928,-0.816766,-0.041343,0.215262,-0.533710
28206,,3.909645,-1.615343,8.960318,0.003011,0.031876,-0.014100,0.756104,-0.380859,0.696533,-0.816767,-0.041354,0.215242,-0.533715
28207,,3.883183,-1.613909,8.967125,0.001629,0.033531,-0.016772,0.753906,-0.380859,0.700928,-0.816774,-0.041360,0.215222,-0.533712
28208,,3.929948,-1.580304,8.960445,-0.003258,0.025753,-0.012711,0.756104,-0.380859,0.692383,-0.816760,-0.041363,0.215245,-0.533725
28209,,3.933447,-1.617806,8.991941,-0.002923,0.035274,-0.015458,0.751709,-0.380859,0.698730,-0.816766,-0.041344,0.215230,-0.533723
28210,,3.923530,-1.613968,8.959519,-0.001397,0.021352,-0.014988,0.758301,-0.380859,0.698730,-0.816751,-0.041369,0.215266,-0.533729
28211,,3.928878,-1.616956,8.994091,-0.001711,0.034444,-0.014778,0.751709,-0.383057,0.696777,-0.816754,-0.041356,0.215251,-0.533731
28212,,3.923084,-1.597558,8.980228,0.000722,0.032772,-0.013427,0.758301,-0.383057,0.692383,-0.816746,-0.041358,0.215234,-0.533751
28213,,3.887514,-1.627381,8.950235,-0.001962,0.030100,-0.014400,0.758301,-0.380859,0.698730,-0.816743,-0.041356,0.215238,-0.533753
28214,,3.916317,-1.631001,8.979493,-0.001922,0.032689,-0.015583,0.756104,-0.380859,0.692383,-0.816744,-0.041348,0.215230,-0.533756
28215,,3.886879,-1.611040,8.970991,-0.000706,0.031855,-0.014906,0.756104,-0.383057,0.694580,-0.816745,-0.041347,0.215223,-0.533758
28216,,3.937837,-1.649481,8.991722,-0.000709,0.031860,-0.014903,0.758057,-0.376465,0.696289,-0.816740,-0.041347,0.215215,-0.533769
28217,,3.886308,-1.594397,8.991762,0.001202,0.030040,-0.018367,0.756104,-0.383057,0.698975,-0.816747,-0.041362,0.215210,-0.533759
28218,,3.906093,-1.628798,8.984345,-0.003031,0.030149,-0.013061,0.753906,-0.380859,0.694336,-0.816743,-0.041353,0.215215,-0.533764
28219,,3.915646,-1.616271,9.037390,0.001560,0.031009,-0.015545,0.753906,-0.378662,0.694336,-0.816744,-0.041364,0.215205,-0.533765
28220,,3.901042,-1.627782,8.986723,-0.003196,0.030972,-0.015056,0.756104,-0.380859,0.696533,-0.816742,-0.041355,0.215207,-0.533768
28221,,3.919328,-1.608946,8.967348,0.001556,0.031019,-0.015538,0.753662,-0.376465,0.700684,-0.816743,-0.041366,0.215197,-0.533769
28222,,3.945021,-1.593385,8.981581,0.000696,0.032822,-0.013395,0.753906,-0.378662,0.694336,-0.816743,-0.041365,0.215181,-0.533777
28223,,3.921564,-1.611182,9.003385,-0.002144,0.030960,-0.016373,0.754150,-0.385254,0.696777,-0.816747,-0.041362,0.215181,-0.533771
28224,,3.911573,-1.607195,8.971047,0.001709,0.030219,-0.013529,0.756104,-0.378662,0.694336,-0.816734,-0.041375,0.215173,-0.533793
28225,,3.935651,-1.626128,8.982146,-0.002966,0.035357,-0.015411,0.758301,-0.380859,0.696533,-0.816740,-0.041355,0.215157,-0.533791
28226,,3.898677,-1.602726,8.940067,0.001546,0.031044,-0.015522,0.751709,-0.383057,0.696777,-0.816742,-0.041365,0.215147,-0.533791
28227,,3.906511,-1.624472,8.990020,-0.001794,0.031938,-0.013547,0.753906,-0.383057,0.696777,-0.816739,-0.041358,0.215143,-0.533798
28228,,3.908521,-1.608656,9.009506,-0.002035,0.027579,-0.013178,0.753662,-0.374268,0.694092,-0.816720,-0.041364,0.215154,-0.533822
28229,,3.917997,-1.620827,8.953416,-0.000738,0.031923,-0.014865,0.758301,-0.383057,0.696777,-0.816721,-0.041362,0.215147,-0.533824
28230,,3.896172,-1.604363,8.978253,-0.002197,0.028403,-0.015172,0.756104,-0.378662,0.698730,-0.816721,-0.041363,0.215157,-0.533819
28231,,3.917601,-1.604514,8.974045,-0.002001,0.030182,-0.014353,0.751709,-0.380859,0.696533,-0.816719,-0.041360,0.215161,-0.533822
28232,,3.894357,-1.622399,8.995665,-0.001140,0.028388,-0.016490,0.751709,-0.381104,0.690186,-0.816719,-0.041368,0.215167,-0.533819
28233,,3.891811,-1.621881,8.996861,-0.000551,0.033718,-0.014035,0.758545,-0.385254,0.698975,-0.816719,-0.041361,0.215152,-0.533825
28234,,3.929348,-1.618985,8.954001,-0.000908,0.032765,-0.016848,0.753662,-0.376465,0.698486,-0.816716,-0.041361,0.215140,-0.533834
28235,,3.910364,-1.621278,8.994059,0.000269,0.029337,-0.014988,0.753906,-0.378662,0.700684,-0.816714,-0.041371,0.215141,-0.533836
28236,,3.903552,-1.636211,8.976835,-0.000794,0.029364,-0.013663,0.753906,-0.380859,0.698730,-0.816713,-0.041372,0.215142,-0.533837
28237,,3.902444,-1.601416,8.981200,-0.001976,0.032803,-0.015517,0.751709,-0.380859,0.698730,-0.816717,-0.041364,0.215134,-0.533835
28238,,3.881844,-1.638195,9.018094,-0.000760,0.031968,-0.014838,0.753906,-0.383057,0.694580,-0.816712,-0.041363,0.215124,-0.533846
28239,,3.916686,-1.616408,8.960012,-0.000957,0.030196,-0.015653,0.751709,-0.380859,0.694580,-0.816713,-0.041366,0.215125,-0.533845
28240,,3.893298,-1.634371,8.981622,-0.003239,0.031065,-0.015006,0.760498,-0.380859,0.692139,-0.816705,-0.041358,0.215126,-0.533857
28241,,3.916270,-1.600162,8.980615,-0.001036,0.025016,-0.013288,0.758545,-0.385254,0.694580,-0.816694,-0.041372,0.215148,-0.533864
28242,,3.908119,-1.649630,8.960159,-0.003049,0.032850,-0.014182,0.753906,-0.380859,0.694336,-0.816688,-0.041360,0.215144,-0.533876
28243,,3.902610,-1.630275,8.946168,0.000097,0.030193,-0.016962,0.756104,-0.383057,0.694580,-0.816692,-0.041368,0.215141,-0.533870
28244,,3.903156,-1.648664,8.962500,-0.003442,0.029306,-0.015814,0.756104,-0.378662,0.692139,-0.816686,-0.041365,0.215150,-0.533876
28245,,3.909446,-1.617262,9.000381,0.000249,0.029383,-0.014958,0.751709,-0.383301,0.690186,-0.816684,-0.041374,0.215151,-0.533878
28246,,3.899760,-1.613218,8.967966,0.000091,0.030208,-0.016953,0.753906,-0.378662,0.698730,-0.816682,-0.041384,0.215148,-0.533882
28247,,3.897258,-1.612588,8.969167,0.000437,0.031170,-0.014134,0.751465,-0.374268,0.694092,-0.816679,-0.041389,0.215141,-0.533888
28248,,3.925859,-1.615942,8.998738,-0.000820,0.029418,-0.013631,0.753662,-0.376465,0.696289,-0.816680,-0.041389,0.215142,-0.533886
28249,,3.892283,-1.611512,8.971520,-0.001289,0.031884,-0.019619,0.760498,-0.383057,0.696777,-0.816694,-0.041391,0.215136,-0.533868
28250,,3.913591,-1.611287,8.967571,0.001493,0.031164,-0.015444,0.753662,-0.376465,0.694092,-0.816695,-0.041400,0.215125,-0.533869
28251,,3.887252,-1.610226,8.973932,-0.000827,0.029432,-0.013623,0.758301,-0.378662,0.700684,-0.816690,-0.041403,0.215128,-0.533876
28252,,3.935407,-1.629649,8.979955,-0.003267,0.031119,-0.014976,0.756104,-0.380859,0.696533,-0.816696,-0.041391,0.215130,-0.533866
28253,,3.908987,-1.628748,8.986313,0.000423,0.031199,-0.014116,0.753906,-0.380859,0.696533,-0.816694,-0.041395,0.215123,-0.533872
28254,,3.907806,-1.593840,8.990697,-0.000988,0.030267,-0.015611,0.753906,-0.378662,0.694336,-0.816691,-0.041398,0.215121,-0.533877
28255,,3.923534,-1.643533,8.965184,0.000263,0.032031,-0.016106,0.756348,-0.385254,0.698975,-0.816695,-0.041402,0.215111,-0.533875
28256,,3.898443,-1.608114,8.974737,-0.001148,0.031099,-0.017601,0.753906,-0.383057,0.694580,-0.816695,-0.041405,0.215106,-0.533876
28257,,3.919798,-1.608151,8.970774,-0.003124,0.030321,-0.012967,0.747314,-0.383057,0.696777,-0.816690,-0.041396,0.215112,-0.533883
28258,,3.920159,-1.626690,8.987158,-0.000654,0.031243,-0.012783,0.760498,-0.378662,0.692139,-0.816671,-0.041397,0.215105,-0.533915
28259,,3.914625,-1.607342,8.973177,-0.000810,0.032071,-0.014776,0.756104,-0.383057,0.698975,-0.816671,-0.041395,0.215098,-0.533917
28260,,3.919162,-1.610264,9.008003,-0.002220,0.031138,-0.016272,0.756104,-0.380859,0.698730,-0.816673,-0.041391,0.215097,-0.533915
28261,,3.916586,-1.609825,9.009202,-0.000661,0.031258,-0.012774,0.758301,-0.380859,0.696533,-0.816667,-0.041389,0.215093,-0.533926
28262,,3.881772,-1.639883,8.978671,-0.001005,0.030305,-0.015588,0.751953,-0.385498,0.694824,-0.816666,-0.041392,0.215091,-0.533928
28263,,3.907273,-1.624388,8.993184,-0.001885,0.032109,-0.013447,0.760498,-0.380859,0.696533,-0.816664,-0.041383,0.215087,-0.533934
28264,,3.901777,-1.605003,8.979190,0.001617,0.030411,-0.013403,0.749512,-0.383057,0.696777,-0.816649,-0.041396,0.215079,-0.533959
28265,,3.921651,-1.639277,8.972203,-0.003076,0.035567,-0.015294,0.753906,-0.380859,0.698730,-0.816655,-0.041376,0.215063,-0.533958
28266,,3.896398,-1.604008,8.981703,0.001426,0.028640,-0.014218,0.751709,-0.380859,0.694580,-0.816641,-0.041393,0.215061,-0.533979
28267,,3.920768,-1.622687,8.993020,-0.001014,0.030329,-0.015574,0.758057,-0.376465,0.696289,-0.816642,-0.041395,0.215061,-0.533977
28268,,3.894397,-1.621839,8.999227,-0.002083,0.030352,-0.014256,0.753906,-0.378662,0.692139,-0.816641,-0.041390,0.215063,-0.533977
28269,,3.939679,-1.622196,8.990311,-0.001018,0.030339,-0.015569,0.755859,-0.376465,0.696289,-0.816642,-0.041392,0.215063,-0.533976
28270,,3.906355,-1.618032,8.962831,-0.003339,0.028597,-0.013758,0.755859,-0.376465,0.696289,-0.816641,-0.041386,0.215075,-0.533973
28271,,3.903873,-1.617768,8.963960,-0.001752,0.031322,-0.011431,0.756104,-0.378662,0.696533,-0.816632,-0.041378,0.215074,-0.533987
28272,,3.908420,-1.620745,8.998743,-0.001208,0.028571,-0.016383,0.758057,-0.376465,0.694092,-0.816640,-0.041382,0.215081,-0.533973
28273,,3.929853,-1.620647,8.994890,-0.000690,0.031314,-0.012740,0.758301,-0.380859,0.692383,-0.816634,-0.041380,0.215076,-0.533984
28274,,3.899355,-1.635379,8.982627,-0.003498,0.029440,-0.015743,0.755859,-0.374268,0.696289,-0.816638,-0.041373,0.215087,-0.533973
28275,,3.915076,-1.597641,8.948307,-0.000878,0.029541,-0.013558,0.749512,-0.383301,0.694580,-0.816633,-0.041376,0.215090,-0.533980
28276,,3.946318,-1.619753,8.993375,0.000370,0.031311,-0.014045,0.758301,-0.378662,0.694336,-0.816631,-0.041379,0.215081,-0.533987
28277,,3.889029,-1.615073,8.970895,-0.001034,0.030376,-0.015546,0.751953,-0.383057,0.703125,-0.816632,-0.041381,0.215081,-0.533986
28278,,3.913244,-1.633807,8.982347,-0.000854,0.032164,-0.014720,0.756348,-0.385254,0.696777,-0.816629,-0.041378,0.215071,-0.533994
28279,,3.907840,-1.614390,8.968325,0.000181,0.029543,-0.014860,0.756348,-0.385254,0.698975,-0.816627,-0.041387,0.215071,-0.533996
28280,,3.908357,-1.632695,8.984676,-0.001222,0.028607,-0.016362,0.751709,-0.380859,0.696533,-0.816614,-0.041397,0.215077,-0.534014
28281,,3.905923,-1.632067,8.985849,0.001426,0.031319,-0.015344,0.754150,-0.383057,0.703125,-0.816614,-0.041407,0.215066,-0.534016
28282,,3.907463,-1.616212,9.005436,-0.005651,0.029507,-0.013100,0.758301,-0.378662,0.694336,-0.816602,-0.041391,0.215080,-0.534031
28283,,3.904877,-1.616004,9.006595,-0.002086,0.033033,-0.015386,0.760498,-0.378662,0.698486,-0.816605,-0.041381,0.215071,-0.534030
28284,,3.905123,-1.634484,9.023025,-0.002118,0.030425,-0.014214,0.758301,-0.380859,0.698730,-0.816608,-0.041375,0.215074,-0.534025
28285,,3.923668,-1.615521,9.004040,-0.001051,0.030415,-0.015523,0.756104,-0.378662,0.700684,-0.816609,-0.041377,0.215074,-0.534024
28286,,3.891447,-1.577014,8.979703,-0.001943,0.032219,-0.013384,0.753662,-0.374268,0.702637,-0.816608,-0.041367,0.215067,-0.534029
28287,,3.907690,-1.626802,8.954307,-0.002454,0.029484,-0.017023,0.756104,-0.378662,0.696533,-0.816612,-0.041367,0.215074,-0.534020
28288,,3.930342,-1.592288,8.953758,0.001862,0.028868,-0.009343,0.753906,-0.380859,0.696533,-0.816604,-0.041374,0.215071,-0.534032
28289,,3.909744,-1.629129,8.990258,-0.001387,0.029478,-0.018330,0.754150,-0.385254,0.694824,-0.816611,-0.041380,0.215075,-0.534019
28290,,3.903219,-1.644192,8.972997,-0.003173,0.033082,-0.014055,0.753906,-0.378662,0.692139,-0.816601,-0.041367,0.215069,-0.534039
28291,,3.905578,-1.594005,8.995910,-0.002106,0.033073,-0.015362,0.756104,-0.380859,0.700928,-0.816604,-0.041358,0.215060,-0.534038
28292,,3.898908,-1.609119,8.978704,-0.001958,0.032249,-0.013367,0.758301,-0.380859,0.690186,-0.816601,-0.041348,0.215054,-0.534046
28293,,3.903125,-1.612067,9.013583,-0.001067,0.030454,-0.015500,0.762695,-0.380859,0.698730,-0.816602,-0.041350,0.215054,-0.534045
28294,,3.913841,-1.624019,8.957749,-0.000920,0.029628,-0.013506,0.756348,-0.387695,0.692627,-0.816596,-0.041352,0.215057,-0.534052
28295,,3.891286,-1.607897,8.982228,-0.003037,0.032277,-0.012049,0.753906,-0.383057,0.698975,-0.816590,-0.041337,0.215055,-0.534063
28296,,3.888776,-1.607538,8.983380,-0.001249,0.028681,-0.016318,0.753906,-0.380859,0.696533,-0.816574,-0.041347,0.215061,-0.534084
28297,,3.934037,-1.607788,8.974903,-0.002866,0.034073,-0.011217,0.754150,-0.383057,0.703125,-0.816568,-0.041327,0.215052,-0.534099
28298,,3.910327,-1.625968,8.996177,-0.001401,0.029522,-0.018304,0.751465,-0.374268,0.691895,-0.816570,-0.041334,0.215053,-0.534096
28299,,3.929009,-1.606952,8.977255,-0.002002,0.029664,-0.012183,0.756348,-0.385254,0.701172,-0.816561,-0.041330,0.215059,-0.534107
28300,,3.898689,-1.621825,8.964752,-0.002153,0.030500,-0.014171,0.756104,-0.378662,0.694336,-0.816558,-0.041326,0.215060,-0.534112
28301,,3.896195,-1.621392,8.965914,-0.001083,0.030492,-0.015477,0.751221,-0.369873,0.696045,-0.816558,-0.041327,0.215059,-0.534110
28302,,3.920359,-1.640084,8.977568,-0.002132,0.033130,-0.015330,0.753906,-0.380859,0.698730,-0.816577,-0.041312,0.215050,-0.534088
28303,,3.917810,-1.639658,8.978759,-0.002481,0.029560,-0.016981,0.751709,-0.380859,0.698730,-0.816581,-0.041312,0.215057,-0.534079
28304,,3.912553,-1.620096,8.964709,0.003669,0.030580,-0.015892,0.751709,-0.378662,0.696533,-0.816578,-0.041333,0.215041,-0.534088
28305,,3.910003,-1.619450,8.965938,-0.003533,0.032202,-0.016831,0.749512,-0.383057,0.698975,-0.816585,-0.041321,0.215040,-0.534079
28306,,3.907518,-1.618944,8.967113,0.001346,0.028826,-0.014098,0.758301,-0.380859,0.690186,-0.816574,-0.041336,0.215037,-0.534095
28307,,3.911638,-1.621550,9.002067,0.002614,0.033229,-0.015737,0.756348,-0.385254,0.692627,-0.816577,-0.041346,0.215016,-0.534097
28308,,3.906170,-1.601829,8.988131,0.002440,0.031446,-0.016562,0.753906,-0.380859,0.694336,-0.816571,-0.041363,0.215002,-0.534111
28309,,3.893219,-1.613164,8.937167,0.001192,0.029674,-0.016080,0.760498,-0.383057,0.698730,-0.816572,-0.041376,0.214999,-0.534110
28310,,3.904133,-1.619262,9.005737,-0.001275,0.028746,-0.016282,0.758301,-0.378662,0.700684,-0.816568,-0.041384,0.215005,-0.534114
28311,,3.925671,-1.618998,9.002146,-0.001106,0.030540,-0.015451,0.749512,-0.380859,0.700928,-0.816568,-0.041385,0.215004,-0.534113
28312,,3.912672,-1.630639,8.951166,-0.000938,0.032335,-0.014620,0.762695,-0.378662,0.700684,-0.816569,-0.041380,0.214993,-0.534116
28313,,3.890006,-1.614361,8.975549,-0.001427,0.029595,-0.018263,0.758301,-0.383057,0.700928,-0.816577,-0.041385,0.214997,-0.534103
28314,,3.887492,-1.613649,8.976766,0.001058,0.033159,-0.019215,0.753662,-0.376465,0.698486,-0.816591,-0.041392,0.214977,-0.534089
28315,,3.908998,-1.613086,8.973271,0.001009,0.027914,-0.016890,0.758301,-0.378662,0.698486,-0.816592,-0.041410,0.214982,-0.534084
28316,,3.906678,-1.612344,8.974414,0.001176,0.029708,-0.016059,0.753906,-0.378662,0.694336,-0.816600,-0.041421,0.214977,-0.534073
28317,,3.924472,-1.627339,8.952428,0.001174,0.029713,-0.016056,0.756104,-0.383057,0.696777,-0.816601,-0.041434,0.214973,-0.534072
28318,,3.901830,-1.610921,8.976779,-0.000049,0.030564,-0.016737,0.753906,-0.383057,0.700928,-0.816601,-0.041441,0.214969,-0.534074
28319,,3.895461,-1.625869,8.959537,-0.002325,0.034052,-0.017273,0.756104,-0.380859,0.696533,-0.816610,-0.041430,0.214957,-0.534065
28320,,3.903251,-1.613142,9.012939,0.001146,0.027101,-0.014887,0.753906,-0.378662,0.696533,-0.816599,-0.041450,0.214962,-0.534079
28321,,3.896952,-1.628009,8.995682,-0.001088,0.035844,-0.017742,0.756104,-0.383057,0.696777,-0.816611,-0.041440,0.214939,-0.534069
28322,,3.933030,-1.605647,8.938596,-0.001467,0.027011,-0.017080,0.749756,-0.385498,0.694824,-0.816608,-0.041451,0.214952,-0.534068
28323,,3.913133,-1.608102,8.978174,0.002569,0.033317,-0.015682,0.756104,-0.380859,0.698730,-0.816612,-0.041460,0.214931,-0.534070
28324,,3.909541,-1.641834,8.976223,-0.000827,0.031558,-0.012598,0.756104,-0.380859,0.696533,-0.816594,-0.041460,0.214924,-0.534101
28325,,3.907805,-1.606947,8.980701,0.000102,0.032392,-0.015887,0.758301,-0.383057,0.696777,-0.816597,-0.041461,0.214912,-0.534100
28326,,3.904376,-1.640630,8.978690,0.001155,0.029758,-0.016029,0.751465,-0.376465,0.696289,-0.816591,-0.041476,0.214908,-0.534109
28327,,3.902703,-1.605630,8.983155,-0.001125,0.033248,-0.016566,0.756104,-0.380859,0.696533,-0.816598,-0.041471,0.214896,-0.534104
28328,,3.920399,-1.620619,8.961319,0.000860,0.031445,-0.019998,0.756104,-0.378662,0.694336,-0.816613,-0.041482,0.214884,-0.534086
28329,,3.924457,-1.623304,8.996236,-0.001170,0.027997,-0.014245,0.756104,-0.383057,0.700928,-0.816608,-0.041488,0.214894,-0.534089
28330,,3.919298,-1.603827,8.982124,0.001001,0.030617,-0.018004,0.749268,-0.374268,0.694092,-0.816611,-0.041501,0.214886,-0.534086
28331,,3.889083,-1.618499,8.969457,-0.001136,0.033270,-0.016554,0.756104,-0.383057,0.698975,-0.816618,-0.041496,0.214874,-0.534081
28332,,3.914036,-1.602601,8.984637,0.000227,0.031589,-0.013878,0.758301,-0.383057,0.692383,-0.816616,-0.041497,0.214864,-0.534088
28333,,3.911387,-1.602079,8.985884,-0.000997,0.032441,-0.014560,0.753662,-0.376465,0.696289,-0.816616,-0.041492,0.214856,-0.534091
28334,,3.907983,-1.635913,8.983856,0.000060,0.029806,-0.014703,0.758301,-0.380859,0.694336,-0.816612,-0.041500,0.214855,-0.534098
28335,,3.909892,-1.585358,9.006821,0.001153,0.032437,-0.017157,0.751709,-0.378662,0.696533,-0.816618,-0.041507,0.214840,-0.534093
28336,,3.899364,-1.650108,8.967773,-0.001328,0.028868,-0.016215,0.756104,-0.380859,0.694336,-0.816617,-0.041512,0.214846,-0.534092
28337,,3.921658,-1.615362,8.967668,-0.001151,0.033302,-0.016536,0.753662,-0.372070,0.693848,-0.816624,-0.041507,0.214834,-0.534087
28338,,3.902291,-1.583626,9.010422,-0.001476,0.029719,-0.018196,0.754150,-0.385254,0.694824,-0.816638,-0.041509,0.214837,-0.534064
28339,,3.940742,-1.614242,8.965519,0.002347,0.028977,-0.015303,0.753662,-0.376465,0.696289,-0.816636,-0.041528,0.214834,-0.534067
28340,,3.917067,-1.632267,8.986500,-0.001320,0.031523,-0.017359,0.753906,-0.380859,0.696533,-0.816637,-0.041529,0.214828,-0.534068
28341,,3.894137,-1.616049,9.010706,0.000043,0.029840,-0.014683,0.755859,-0.376465,0.702881,-0.816635,-0.041536,0.214828,-0.534071
28342,,3.912096,-1.631160,8.988867,-0.001181,0.030692,-0.015367,0.758545,-0.385254,0.696777,-0.816638,-0.041535,0.214825,-0.534067
28343,,3.909719,-1.630763,8.989973,-0.003803,0.027959,-0.016416,0.756104,-0.383057,0.694580,-0.816639,-0.041533,0.214842,-0.534059
28344,,3.908095,-1.595927,8.994344,0.001417,0.030802,-0.013156,0.753662,-0.376465,0.694092,-0.816619,-0.041545,0.214833,-0.534093
28345,,3.908249,-1.614290,9.010832,-0.003632,0.032401,-0.016732,0.754150,-0.387451,0.697021,-0.816625,-0.041532,0.214831,-0.534084
28346,,3.898689,-1.644834,8.974982,0.001253,0.029016,-0.013982,0.756104,-0.383057,0.694580,-0.816610,-0.041548,0.214830,-0.534107
28347,,3.897029,-1.609746,8.979407,0.000966,0.030706,-0.017951,0.756104,-0.383057,0.700928,-0.816617,-0.041560,0.214822,-0.534098
28348,,3.900883,-1.612425,9.014357,-0.001353,0.028924,-0.016184,0.760498,-0.383057,0.694580,-0.816607,-0.041568,0.214827,-0.534111
28349,,3.912644,-1.624082,8.958793,0.001119,0.032513,-0.017112,0.758301,-0.380859,0.705078,-0.816614,-0.041575,0.214812,-0.534106
28350,,3.913605,-1.607814,8.978551,0.001101,0.029878,-0.015956,0.758301,-0.383057,0.694580,-0.816608,-0.041588,0.214807,-0.534115
28351,,3.889897,-1.625811,8.999463,0.000957,0.030727,-0.017939,0.758057,-0.376465,0.700684,-0.816616,-0.041600,0.214800,-0.534106
28352,,3.932631,-1.606623,8.976525,-0.003508,0.031592,-0.014730,0.753662,-0.376465,0.698486,-0.816615,-0.041588,0.214801,-0.534108
28353,,3.906194,-1.606035,8.982096,0.000939,0.028096,-0.016781,0.749512,-0.383057,0.696777,-0.816616,-0.041605,0.214804,-0.534103
28354,,3.900288,-1.620985,8.964740,-0.000913,0.031703,-0.012517,0.753906,-0.380859,0.698730,-0.816607,-0.041601,0.214797,-0.534120
28355,,3.921826,-1.620531,8.961509,-0.000287,0.028954,-0.017463,0.753906,-0.383057,0.696777,-0.816612,-0.041612,0.214800,-0.534111
28356,,3.877576,-1.623054,9.005276,-0.000134,0.030756,-0.016626,0.758301,-0.380859,0.694336,-0.816606,-0.041619,0.214794,-0.534121
28357,,3.899081,-1.622565,9.002068,-0.001218,0.030764,-0.015327,0.758301,-0.378662,0.700684,-0.816607,-0.041619,0.214793,-0.534121
28358,,3.893834,-1.603161,8.987974,-0.000139,0.030766,-0.016621,0.753662,-0.374268,0.694092,-0.816610,-0.041625,0.214788,-0.534118
28359,,3.915484,-1.602464,8.984761,0.002008,0.028122,-0.018060,0.753906,-0.383057,0.696777,-0.816614,-0.041648,0.214788,-0.534110
28360,,3.909546,-1.617394,8.967439,-0.003517,0.034274,-0.015861,0.758301,-0.380859,0.694336,-0.816620,-0.041629,0.214778,-0.534106
28361,,3.889054,-1.620175,9.006835,0.001217,0.029087,-0.013940,0.756104,-0.378662,0.698730,-0.816615,-0.041642,0.214777,-0.534113
28362,,3.931976,-1.600824,8.983987,-0.001523,0.029836,-0.018132,0.751709,-0.378662,0.694336,-0.816620,-0.041647,0.214780,-0.534104
28363,,3.904810,-1.634654,8.986260,-0.002455,0.031642,-0.015999,0.756104,-0.378662,0.692139,-0.816623,-0.041640,0.214778,-0.534100
28364,,3.902939,-1.599800,8.990691,-0.000013,0.029950,-0.014619,0.753906,-0.378662,0.696533,-0.816620,-0.041646,0.214777,-0.534106
28365,,3.927177,-1.618118,9.002838,-0.001378,0.031651,-0.017289,0.758545,-0.383057,0.703125,-0.816626,-0.041645,0.214772,-0.534097
28366,,3.894530,-1.614177,8.974550,-0.000158,0.030807,-0.016597,0.756104,-0.378662,0.698730,-0.816626,-0.041651,0.214766,-0.534100
28367,,3.918830,-1.632519,8.986681,-0.002616,0.029863,-0.016823,0.753906,-0.380859,0.700928,-0.816630,-0.041649,0.214772,-0.534092
28368,,3.917138,-1.597604,8.991039,0.001050,0.027321,-0.014754,0.753906,-0.383301,0.692383,-0.816623,-0.041667,0.214776,-0.534098
28369,,3.917307,-1.615882,9.007539,-0.000947,0.034423,-0.013623,0.756104,-0.380859,0.698730,-0.816623,-0.041656,0.214760,-0.534106
28370,,3.902605,-1.608568,8.941137,0.003362,0.029128,-0.016501,0.755859,-0.376465,0.694092,-0.816613,-0.041683,0.214752,-0.534122
28371,,3.935656,-1.648816,9.002471,-0.001392,0.031681,-0.017272,0.753906,-0.380859,0.696533,-0.816620,-0.041682,0.214747,-0.534114
28372,,3.903646,-1.610610,8.977373,-0.001255,0.030838,-0.015286,0.756104,-0.378662,0.692139,-0.816621,-0.041681,0.214745,-0.534114
28373,,3.901101,-1.610094,8.978572,-0.001397,0.031692,-0.017266,0.755859,-0.374268,0.698242,-0.816627,-0.041680,0.214740,-0.534106
28374,,3.892563,-1.606201,8.945939,-0.000176,0.030848,-0.016574,0.762695,-0.380859,0.694336,-0.816638,-0.041683,0.214735,-0.534091
28375,,3.922768,-1.627825,8.992014,-0.002485,0.031703,-0.015967,0.758057,-0.374268,0.700439,-0.816642,-0.041676,0.214734,-0.534087
28376,,3.896844,-1.592860,9.000694,0.000755,0.029057,-0.018696,0.753906,-0.380859,0.696533,-0.816654,-0.041690,0.214734,-0.534067
28377,,3.915348,-1.607874,8.978975,-0.003731,0.027259,-0.014361,0.753906,-0.380859,0.698730,-0.816649,-0.041688,0.214754,-0.534067
28378,,3.909652,-1.623134,8.961535,-0.003716,0.032567,-0.016649,0.755859,-0.376465,0.694092,-0.816649,-0.041676,0.214750,-0.534069
28379,,3.886482,-1.607158,8.985435,-0.000343,0.026420,-0.016250,0.753906,-0.383057,0.694580,-0.816647,-0.041692,0.214764,-0.534065
28380,,3.926351,-1.603159,8.944245,0.001032,0.030029,-0.015866,0.756104,-0.378662,0.696533,-0.816644,-0.041704,0.214759,-0.534072
28381,,3.881661,-1.605878,8.987748,0.000091,0.031835,-0.013734,0.758301,-0.380859,0.700928,-0.816641,-0.041705,0.214750,-0.534079
28382,,3.881773,-1.624203,9.004254,-0.001280,0.030887,-0.015259,0.755859,-0.376465,0.696289,-0.816639,-0.041704,0.214748,-0.534083
28383,,3.924731,-1.604818,8.981698,-0.001428,0.029090,-0.016093,0.753662,-0.374268,0.700439,-0.816640,-0.041709,0.214754,-0.534078
28384,,3.897874,-1.638637,8.983737,0.001017,0.027394,-0.014710,0.753906,-0.378662,0.696533,-0.816647,-0.041722,0.214759,-0.534065
28385,,3.895770,-1.603799,8.988215,-0.003444,0.036207,-0.014957,0.760498,-0.378662,0.696533,-0.816653,-0.041698,0.214742,-0.534065
28386,,3.919871,-1.622088,9.000574,0.000875,0.028256,-0.016685,0.758301,-0.380859,0.696533,-0.816655,-0.041714,0.214744,-0.534060
28387,,3.914899,-1.602597,8.986385,-0.000212,0.028258,-0.015393,0.756104,-0.380859,0.696533,-0.816653,-0.041725,0.214751,-0.534060
28388,,3.936486,-1.601983,8.983397,0.000073,0.031870,-0.013714,0.758301,-0.378662,0.696533,-0.816643,-0.041727,0.214741,-0.534078
28389,,3.930726,-1.617006,8.966060,-0.001296,0.030921,-0.015240,0.760254,-0.374268,0.698242,-0.816644,-0.041726,0.214740,-0.534078
28390,,3.901447,-1.597823,8.956089,-0.002385,0.030924,-0.013948,0.751709,-0.383057,0.696777,-0.816649,-0.041716,0.214741,-0.534069
28391,,3.901624,-1.616210,8.972564,-0.000077,0.030081,-0.014544,0.756104,-0.378662,0.694336,-0.816647,-0.041722,0.214740,-0.534073
28392,,3.899215,-1.615681,8.973706,-0.001445,0.029132,-0.016070,0.756104,-0.383057,0.692383,-0.816640,-0.041728,0.214745,-0.534081
28393,,3.920660,-1.615146,8.970802,-0.001022,0.034550,-0.013552,0.758301,-0.383057,0.696777,-0.816640,-0.041716,0.214728,-0.534089
28394,,3.875243,-1.652450,9.010894,-0.001586,0.029996,-0.018045,0.753906,-0.383057,0.694580,-0.816632,-0.041724,0.214730,-0.534099
28395,,3.915609,-1.614113,8.973193,0.000050,0.029247,-0.012552,0.756104,-0.380859,0.696533,-0.816624,-0.041730,0.214732,-0.534111
28396,,3.892180,-1.598167,8.997036,-0.001313,0.030956,-0.015221,0.756104,-0.383057,0.696777,-0.816613,-0.041732,0.214730,-0.534129
28397,,3.907938,-1.594245,8.960252,-0.000228,0.030965,-0.016506,0.751709,-0.380859,0.698730,-0.816617,-0.041736,0.214725,-0.534124
28398,,3.926299,-1.609157,8.938824,-0.001177,0.032771,-0.014376,0.753906,-0.383057,0.696777,-0.816606,-0.041732,0.214714,-0.534145
28399,,3.905420,-1.612174,8.977981,-0.003771,0.030013,-0.015456,0.756104,-0.378662,0.700684,-0.816607,-0.041724,0.214723,-0.534141
28400,,3.908653,-1.615021,9.013039,0.001265,0.031080,-0.012987,0.756104,-0.378662,0.696533,-0.816595,-0.041732,0.214712,-0.534162
28401,,3.897338,-1.626681,8.961766,-0.001599,0.030031,-0.018026,0.749268,-0.376465,0.700684,-0.816602,-0.041735,0.214715,-0.534150
28402,,3.927545,-1.613980,9.011395,-0.003226,0.034589,-0.010951,0.758057,-0.374268,0.696289,-0.816601,-0.041709,0.214702,-0.534160
28403,,3.891973,-1.626060,8.964210,-0.001193,0.030135,-0.013222,0.754150,-0.385254,0.698975,-0.816595,-0.041709,0.214704,-0.534168
28404,,3.913541,-1.625513,8.961335,-0.001331,0.030996,-0.015199,0.758301,-0.378662,0.696533,-0.816593,-0.041708,0.214701,-0.534173
28405,,3.914052,-1.609497,8.981108,-0.001333,0.031001,-0.015196,0.751709,-0.380859,0.694580,-0.816593,-0.041706,0.214699,-0.534172
28406,,3.887433,-1.609138,8.986328,-0.001336,0.031006,-0.015193,0.754150,-0.385254,0.696777,-0.816590,-0.041705,0.214697,-0.534179
28407,,3.906055,-1.624112,8.964855,-0.001340,0.028347,-0.014052,0.758301,-0.378662,0.698486,-0.816584,-0.041710,0.214706,-0.534183
28408,,3.906673,-1.608152,8.984561,-0.001205,0.030159,-0.013209,0.758301,-0.380859,0.694336,-0.816569,-0.041712,0.214707,-0.534207
28409,,3.901076,-1.623336,8.967163,-0.003790,0.032725,-0.016570,0.756104,-0.380859,0.696533,-0.816575,-0.041697,0.214704,-0.534199
28410,,3.919980,-1.603907,8.949036,0.001104,0.029323,-0.013796,0.755859,-0.376465,0.702881,-0.816562,-0.041711,0.214703,-0.534219
28411,,3.899064,-1.606769,8.988113,-0.001347,0.031031,-0.015179,0.756104,-0.380859,0.698730,-0.816562,-0.041709,0.214701,-0.534219
28412,,3.899126,-1.625168,9.004625,-0.002574,0.031888,-0.015869,0.753662,-0.376465,0.692139,-0.816569,-0.041700,0.214697,-0.534211
28413,,3.890872,-1.621423,8.971941,0.000007,0.031997,-0.013639,0.758301,-0.380859,0.696533,-0.816566,-0.041700,0.214688,-0.534219
28414,,3.893940,-1.624239,9.007036,-0.002713,0.030090,-0.016705,0.756104,-0.380859,0.700928,-0.816569,-0.041697,0.214693,-0.534213
28415,,3.888800,-1.605049,8.992866,-0.002447,0.031045,-0.013884,0.756348,-0.385254,0.698975,-0.816566,-0.041689,0.214694,-0.534217
28416,,3.910420,-1.604493,8.990052,-0.001493,0.029248,-0.016007,0.755859,-0.374268,0.696289,-0.816555,-0.041696,0.214698,-0.534233
28417,,3.931913,-1.638205,8.983911,-0.001628,0.027444,-0.016846,0.756104,-0.380859,0.700928,-0.816556,-0.041705,0.214711,-0.534225
28418,,3.881778,-1.603682,8.996143,-0.001364,0.028397,-0.014024,0.753662,-0.374268,0.696289,-0.816556,-0.041706,0.214719,-0.534222
28419,,3.903268,-1.603244,8.993382,-0.004774,0.034578,-0.014418,0.753906,-0.378662,0.696533,-0.816559,-0.041681,0.214712,-0.534222
28420,,3.921726,-1.618318,8.972089,-0.001369,0.031077,-0.015153,0.758301,-0.380859,0.694336,-0.816567,-0.041676,0.214709,-0.534211
28421,,3.900957,-1.586817,9.014406,0.000945,0.030237,-0.015740,0.753662,-0.374268,0.694092,-0.816568,-0.041686,0.214704,-0.534211
28422,,3.913863,-1.632794,8.955845,-0.003821,0.030122,-0.015402,0.760498,-0.383057,0.698730,-0.816571,-0.041676,0.214713,-0.534203
28423,,3.892889,-1.635806,8.994801,-0.000416,0.029290,-0.017271,0.753906,-0.378662,0.696533,-0.816576,-0.041685,0.214715,-0.534195
28424,,3.912233,-1.581723,8.980032,0.003651,0.029495,-0.011524,0.751709,-0.378662,0.700684,-0.816557,-0.041706,0.214706,-0.534225
28425,,3.906484,-1.630844,8.959421,0.000801,0.033789,-0.018839,0.758545,-0.385254,0.698975,-0.816570,-0.041710,0.214686,-0.534213
28426,,3.903936,-1.595858,8.964037,-0.001123,0.034727,-0.013452,0.758301,-0.380859,0.698730,-0.816561,-0.041699,0.214667,-0.534235
28427,,3.906625,-1.632966,8.995888,-0.000554,0.027499,-0.018103,0.751709,-0.380859,0.698730,-0.816566,-0.041714,0.214677,-0.534223
28428,,3.901658,-1.613507,8.981700,-0.000297,0.031125,-0.016414,0.755859,-0.374268,0.691895,-0.816563,-0.041718,0.214670,-0.534229
28429,,3.901897,-1.597283,9.001562,0.000922,0.032951,-0.016849,0.758301,-0.378662,0.696533,-0.816570,-0.041723,0.214654,-0.534225
28430,,3.899079,-1.630935,8.999530,0.000923,0.030283,-0.015714,0.758301,-0.380859,0.696533,-0.816577,-0.041731,0.214649,-0.534216
28431,,3.896544,-1.630323,9.000739,-0.001529,0.031994,-0.017101,0.751465,-0.376465,0.700684,-0.816583,-0.041729,0.214644,-0.534208
28432,,3.891449,-1.610994,8.986579,-0.001528,0.029325,-0.015966,0.755859,-0.374268,0.700439,-0.816585,-0.041730,0.214647,-0.534204
28433,,3.886166,-1.626069,8.969120,-0.001402,0.031142,-0.015119,0.758301,-0.378662,0.700684,-0.816586,-0.041728,0.214645,-0.534204
28434,,3.913476,-1.594164,9.003677,0.000786,0.028491,-0.016546,0.756104,-0.380859,0.700928,-0.816597,-0.041740,0.214646,-0.534186
28435,,3.926870,-1.605635,8.948503,-0.001280,0.032964,-0.014270,0.751709,-0.380859,0.698730,-0.816597,-0.041733,0.214637,-0.534190
28436,,3.902730,-1.624154,8.968887,-0.000316,0.031167,-0.016391,0.758057,-0.376465,0.694092,-0.816595,-0.041737,0.214629,-0.534196
28437,,3.870706,-1.620504,8.939949,-0.000319,0.031173,-0.016388,0.756104,-0.378662,0.696533,-0.816599,-0.041741,0.214624,-0.534192
28438,,3.924560,-1.607147,8.986133,-0.000321,0.031178,-0.016385,0.760498,-0.378662,0.700684,-0.816605,-0.041743,0.214618,-0.534184
28439,,3.897751,-1.640955,8.987878,0.004571,0.030445,-0.014731,0.753906,-0.380859,0.696533,-0.816602,-0.041767,0.214603,-0.534192
28440,,3.921968,-1.624383,9.004014,-0.001557,0.034720,-0.018206,0.753906,-0.383057,0.698975,-0.816612,-0.041759,0.214585,-0.534186
28441,,3.889768,-1.620741,8.975133,0.001021,0.032153,-0.014836,0.753906,-0.378662,0.696533,-0.816612,-0.041763,0.214572,-0.534190
28442,,3.908852,-1.600833,8.957248,0.002959,0.028554,-0.019080,0.753906,-0.380859,0.698730,-0.816612,-0.041792,0.214567,-0.534190
28443,,3.906382,-1.634530,8.955101,-0.002647,0.029367,-0.014660,0.753906,-0.380859,0.703125,-0.816610,-0.041789,0.214575,-0.534190
28444,,3.885174,-1.637538,8.993944,-0.000591,0.030261,-0.019188,0.760498,-0.378662,0.698486,-0.816615,-0.041797,0.214571,-0.534184
28445,,3.907055,-1.602170,8.994646,0.000632,0.029412,-0.018489,0.753906,-0.383057,0.700928,-0.816622,-0.041812,0.214570,-0.534172
28446,,3.923531,-1.597934,8.958102,-0.000465,0.029405,-0.017209,0.753906,-0.380859,0.692383,-0.816619,-0.041822,0.214570,-0.534176
28447,,3.923776,-1.616150,8.974573,-0.000337,0.028543,-0.015232,0.751709,-0.378662,0.700684,-0.816617,-0.041831,0.214576,-0.534176
28448,,3.897234,-1.615983,8.979425,-0.004016,0.031111,-0.017319,0.753906,-0.378662,0.696533,-0.816619,-0.041821,0.214579,-0.534172
28449,,3.918957,-1.615190,8.976851,0.000754,0.028566,-0.016504,0.756104,-0.378662,0.698730,-0.816620,-0.041836,0.214582,-0.534169
28450,,3.919268,-1.599004,8.996622,-0.001700,0.030279,-0.017894,0.756104,-0.378662,0.694336,-0.816627,-0.041837,0.214582,-0.534158
28451,,3.911562,-1.629484,8.960514,0.000749,0.028576,-0.016498,0.753662,-0.376465,0.694092,-0.816628,-0.041853,0.214584,-0.534155
28452,,3.890399,-1.597962,9.002611,-0.000609,0.030303,-0.019165,0.758301,-0.383057,0.692383,-0.816639,-0.041859,0.214583,-0.534138
28453,,3.912078,-1.596976,9.000111,0.000864,0.030401,-0.015646,0.756104,-0.378662,0.696533,-0.816639,-0.041869,0.214577,-0.534138
28454,,3.904266,-1.593008,8.967391,0.000852,0.033090,-0.016770,0.753662,-0.376465,0.694092,-0.816635,-0.041876,0.214561,-0.534151
28455,,3.904237,-1.611186,8.983982,-0.000237,0.030397,-0.014365,0.753906,-0.383057,0.700928,-0.816633,-0.041880,0.214559,-0.534155
28456,,3.877702,-1.611091,8.988756,-0.004026,0.028466,-0.016174,0.754150,-0.385254,0.698975,-0.816629,-0.041875,0.214573,-0.534155
28457,,3.918360,-1.606851,8.948585,-0.001468,0.031262,-0.015056,0.758545,-0.385254,0.698975,-0.816629,-0.041873,0.214571,-0.534156
28458,,3.894295,-1.625478,8.968758,-0.001718,0.030320,-0.017873,0.756104,-0.380859,0.692383,-0.816613,-0.041881,0.214570,-0.534180
28459,,3.913419,-1.605731,8.950948,0.000850,0.030432,-0.015628,0.758301,-0.383057,0.696777,-0.816614,-0.041890,0.214565,-0.534180
28460,,3.889477,-1.589873,8.974372,-0.000368,0.028605,-0.015198,0.753906,-0.380859,0.694336,-0.816596,-0.041904,0.214570,-0.534204
28461,,3.911148,-1.589007,8.971914,-0.001607,0.032152,-0.017018,0.751709,-0.383057,0.696777,-0.816603,-0.041900,0.214564,-0.534196
28462,,3.911167,-1.607140,8.988492,0.001940,0.030463,-0.016894,0.755859,-0.376465,0.702881,-0.816593,-0.041918,0.214554,-0.534214
28463,,3.906145,-1.621972,8.971052,0.000968,0.029582,-0.013645,0.756104,-0.378662,0.692139,-0.816588,-0.041929,0.214553,-0.534222
28464,,3.901272,-1.602783,8.956777,-0.003786,0.026760,-0.012214,0.758301,-0.378662,0.694336,-0.816579,-0.041924,0.214575,-0.534228
28465,,3.930452,-1.624312,9.003704,-0.003709,0.036648,-0.014736,0.756104,-0.378662,0.698730,-0.816585,-0.041897,0.214556,-0.534228
28466,,3.879603,-1.624401,9.012100,0.002926,0.025992,-0.017878,0.749512,-0.381104,0.692383,-0.816584,-0.041930,0.214563,-0.534224
28467,,3.920442,-1.619717,8.972099,-0.000152,0.032275,-0.013484,0.756104,-0.378662,0.702881,-0.816581,-0.041928,0.214553,-0.534233
28468,,3.920348,-1.603671,8.991974,-0.001496,0.031317,-0.015028,0.758301,-0.380859,0.694336,-0.816577,-0.041925,0.214549,-0.534241
28469,,3.917773,-1.603217,8.993177,-0.001498,0.031322,-0.015025,0.755859,-0.376465,0.704834,-0.816577,-0.041922,0.214546,-0.534242
28470,,3.912677,-1.583987,8.979008,-0.001373,0.030455,-0.013051,0.754150,-0.383057,0.703125,-0.816571,-0.041919,0.214546,-0.534251
28471,,3.936715,-1.601916,8.992063,-0.000418,0.034041,-0.017414,0.758057,-0.376221,0.704834,-0.816581,-0.041916,0.214529,-0.534244
28472,,3.902486,-1.614139,8.944151,-0.004059,0.028539,-0.016140,0.760254,-0.376465,0.694092,-0.816582,-0.041910,0.214541,-0.534237
28473,,3.929239,-1.616655,8.975745,-0.001509,0.031343,-0.015014,0.758301,-0.378662,0.702881,-0.816582,-0.041907,0.214538,-0.534238
28474,,3.880903,-1.601310,9.002639,0.000942,0.029636,-0.013613,0.753906,-0.383057,0.698975,-0.816579,-0.041916,0.214536,-0.534243
28475,,3.926685,-1.599914,8.996804,-0.000541,0.032244,-0.018251,0.760498,-0.380859,0.698730,-0.816589,-0.041918,0.214527,-0.534232
28476,,3.919130,-1.630518,8.960743,-0.002743,0.032215,-0.015705,0.756104,-0.383057,0.696777,-0.816580,-0.041911,0.214522,-0.534248
28477,,3.914114,-1.611321,8.946542,-0.001504,0.028670,-0.013882,0.755859,-0.376465,0.698486,-0.816574,-0.041914,0.214531,-0.534253
28478,,3.919004,-1.598513,9.000402,-0.000310,0.033207,-0.015422,0.753906,-0.380859,0.700928,-0.816572,-0.041912,0.214516,-0.534262
28479,,3.921202,-1.601110,9.035734,0.002252,0.033320,-0.013170,0.751953,-0.383057,0.703125,-0.816569,-0.041917,0.214496,-0.534274
28480,,3.911143,-1.612915,8.984316,-0.004091,0.031272,-0.017244,0.753662,-0.376465,0.700684,-0.816567,-0.041907,0.214497,-0.534278
28481,,3.906217,-1.593417,8.970124,0.005579,0.027995,-0.014734,0.753662,-0.376465,0.698486,-0.816562,-0.041942,0.214489,-0.534286
28482,,3.901199,-1.608242,8.952735,-0.001312,0.035031,-0.013291,0.753906,-0.380859,0.696533,-0.816571,-0.041924,0.214469,-0.534282
28483,,3.900873,-1.592361,8.972637,-0.002508,0.030500,-0.011748,0.760742,-0.385254,0.696777,-0.816562,-0.041915,0.214474,-0.534295
28484,,3.900912,-1.610815,8.989140,-0.001645,0.029578,-0.015835,0.758301,-0.378662,0.696533,-0.816544,-0.041922,0.214478,-0.534320
28485,,3.922543,-1.610057,8.986858,-0.003866,0.032242,-0.014412,0.753906,-0.378662,0.692139,-0.816544,-0.041907,0.214478,-0.534321
28486,,3.917530,-1.590865,8.972654,-0.000422,0.028731,-0.015129,0.753662,-0.374268,0.698486,-0.816538,-0.041916,0.214483,-0.534328
28487,,3.915187,-1.624881,8.970503,-0.003746,0.031376,-0.012438,0.756348,-0.385254,0.701172,-0.816532,-0.041901,0.214487,-0.534337
28488,,3.895659,-1.612467,9.027839,0.003220,0.031567,-0.015260,0.753906,-0.380859,0.698730,-0.816529,-0.041916,0.214469,-0.534347
28489,,3.936472,-1.607747,8.988245,-0.001315,0.032370,-0.012151,0.760498,-0.383057,0.694580,-0.816523,-0.041908,0.214462,-0.534360
28490,,3.902560,-1.620121,8.940138,-0.001532,0.028730,-0.013850,0.756104,-0.380859,0.694336,-0.816502,-0.041915,0.214470,-0.534387
28491,,3.909590,-1.591924,9.012642,-0.003882,0.032272,-0.014398,0.760498,-0.383057,0.698730,-0.816503,-0.041899,0.214470,-0.534388
28492,,3.904641,-1.607192,8.995163,-0.001430,0.030563,-0.012994,0.756104,-0.378662,0.698730,-0.816481,-0.041901,0.214470,-0.534420
28493,,3.902189,-1.606802,8.996297,-0.001538,0.028744,-0.013843,0.760498,-0.378662,0.700684,-0.816476,-0.041903,0.214479,-0.534425
28494,,3.897305,-1.621955,8.978816,-0.001453,0.033274,-0.014106,0.753662,-0.376465,0.696289,-0.816475,-0.041894,0.214467,-0.534431
28495,,3.897011,-1.605877,8.998706,0.000893,0.029740,-0.013553,0.758545,-0.387451,0.698975,-0.816470,-0.041903,0.214465,-0.534440
28496,,3.892094,-1.620929,8.981261,-0.001459,0.033284,-0.014101,0.751465,-0.372070,0.694092,-0.816456,-0.041898,0.214453,-0.534466
28497,,3.911067,-1.601135,8.963811,0.000869,0.032453,-0.014663,0.758057,-0.376465,0.698486,-0.816457,-0.041901,0.214440,-0.534470
28498,,3.908486,-1.600653,8.965022,-0.001320,0.029713,-0.011011,0.753906,-0.383057,0.696777,-0.816460,-0.041893,0.214444,-0.534465
28499,,3.932330,-1.584185,8.981573,-0.000363,0.033321,-0.015359,0.760498,-0.380859,0.696533,-0.816463,-0.041890,0.214430,-0.534465
28500,,3.905768,-1.618574,8.982818,-0.002780,0.029635,-0.014528,0.756348,-0.385254,0.694580,-0.816446,-0.041890,0.214438,-0.534489
28501,,3.903294,-1.618153,8.983969,-0.000348,0.030628,-0.014237,0.753906,-0.378662,0.702881,-0.816443,-0.041892,0.214435,-0.534494
28502,,3.917794,-1.595218,8.932382,-0.002785,0.029645,-0.014523,0.758057,-0.376465,0.696289,-0.816428,-0.041891,0.214441,-0.534514
28503,,3.902989,-1.620708,9.020322,-0.003912,0.032333,-0.014370,0.755859,-0.376465,0.694092,-0.816429,-0.041875,0.214441,-0.534514
28504,,3.895501,-1.617055,8.987548,0.000953,0.034316,-0.013788,0.753906,-0.378906,0.689941,-0.816433,-0.041871,0.214420,-0.534516
28505,,3.890549,-1.597615,8.973363,0.000666,0.026139,-0.015229,0.751709,-0.378662,0.698730,-0.816428,-0.041890,0.214433,-0.534517
28506,,3.936399,-1.596118,8.967979,-0.001385,0.035163,-0.013220,0.760498,-0.378662,0.692139,-0.816425,-0.041875,0.214415,-0.534530
28507,,3.912089,-1.614966,8.987848,-0.001793,0.027865,-0.016629,0.756104,-0.378662,0.698730,-0.816427,-0.041882,0.214427,-0.534523
28508,,3.909721,-1.614605,8.988943,-0.004026,0.030532,-0.015211,0.753906,-0.380859,0.696533,-0.816423,-0.041872,0.214434,-0.534526
28509,,3.907208,-1.614228,8.990103,-0.000368,0.030668,-0.014215,0.753906,-0.378662,0.698730,-0.816420,-0.041875,0.214432,-0.534531
28510,,3.878257,-1.629890,8.975868,-0.002703,0.031509,-0.013650,0.758301,-0.378662,0.696533,-0.816414,-0.041865,0.214431,-0.534542
28511,,3.925968,-1.578435,8.992562,0.000610,0.031584,-0.017439,0.753662,-0.376465,0.694092,-0.816420,-0.041873,0.214421,-0.534535
28512,,3.921517,-1.627811,8.971792,-0.001481,0.030660,-0.012943,0.760498,-0.380859,0.694336,-0.816416,-0.041868,0.214422,-0.534542
28513,,3.916611,-1.608623,8.957553,-0.001582,0.028838,-0.013794,0.753662,-0.376465,0.700684,-0.816410,-0.041870,0.214430,-0.534547
28514,,3.892054,-1.593052,8.980659,0.000824,0.032544,-0.014610,0.755859,-0.376465,0.698486,-0.816409,-0.041873,0.214415,-0.534555
28515,,3.913864,-1.626476,8.975375,-0.003944,0.032394,-0.014341,0.756104,-0.383057,0.698975,-0.816409,-0.041857,0.214415,-0.534556
28516,,3.913373,-1.610587,8.995267,-0.001613,0.031564,-0.014898,0.753662,-0.374268,0.696289,-0.816406,-0.041853,0.214411,-0.534563
28517,,3.906315,-1.606861,8.962364,-0.000485,0.028881,-0.015046,0.756104,-0.378662,0.698730,-0.816403,-0.041860,0.214415,-0.534564
28518,,3.882172,-1.625765,8.982060,-0.002822,0.029721,-0.014485,0.756104,-0.378662,0.694336,-0.816409,-0.041852,0.214422,-0.534554
28519,,3.925656,-1.605408,8.961456,0.000714,0.030744,-0.015449,0.753662,-0.376465,0.694092,-0.816410,-0.041860,0.214416,-0.534555
28520,,3.879459,-1.609173,9.003018,-0.001695,0.027043,-0.014631,0.753906,-0.380859,0.694336,-0.816406,-0.041867,0.214432,-0.534554
28521,,3.899108,-1.623671,8.982303,0.000805,0.032582,-0.014588,0.755859,-0.376465,0.698486,-0.816406,-0.041869,0.214418,-0.534559
28522,,3.920583,-1.622819,8.980375,-0.006299,0.033264,-0.013766,0.758057,-0.376465,0.696289,-0.816405,-0.041840,0.214420,-0.534562
28523,,3.918024,-1.622560,8.981538,-0.000498,0.028911,-0.015030,0.758057,-0.376465,0.702881,-0.816402,-0.041847,0.214425,-0.534563
28524,,3.917750,-1.606450,9.001355,-0.000500,0.028915,-0.015028,0.753662,-0.374268,0.696289,-0.816408,-0.041852,0.214429,-0.534552
28525,,3.888550,-1.587656,8.990328,-0.000434,0.033464,-0.015280,0.755859,-0.376465,0.692139,-0.816412,-0.041848,0.214415,-0.534553
28526,,3.912554,-1.605431,9.003797,-0.002962,0.030646,-0.016431,0.758301,-0.380859,0.692383,-0.816425,-0.041839,0.214419,-0.534532
28527,,3.883695,-1.621053,8.989450,0.000788,0.032615,-0.014569,0.758301,-0.378662,0.696533,-0.816425,-0.041841,0.214405,-0.534537
28528,,3.907321,-1.604456,9.006243,-0.004195,0.031517,-0.017130,0.753662,-0.376465,0.696289,-0.816423,-0.041832,0.214409,-0.534539
28529,,3.924595,-1.600310,8.970178,-0.001620,0.028914,-0.013754,0.760254,-0.376465,0.694092,-0.816418,-0.041833,0.214417,-0.534544
28530,,3.900452,-1.619142,8.989800,0.000594,0.028971,-0.016271,0.753906,-0.378662,0.700684,-0.816424,-0.041845,0.214419,-0.534534
28531,,3.924234,-1.602469,9.006556,-0.001532,0.030754,-0.012893,0.753906,-0.380859,0.698730,-0.816418,-0.041841,0.214419,-0.534543
28532,,3.889099,-1.630499,8.939316,-0.000518,0.028955,-0.015007,0.753418,-0.372070,0.689697,-0.816414,-0.041847,0.214422,-0.534548
28533,,3.912827,-1.613830,8.956108,-0.001777,0.032539,-0.016816,0.751465,-0.376465,0.696289,-0.816420,-0.041842,0.214415,-0.534541
28534,,3.914797,-1.616570,8.991354,-0.001843,0.027994,-0.016562,0.758301,-0.380859,0.696533,-0.816435,-0.041843,0.214427,-0.534513
28535,,3.890196,-1.600950,9.014276,0.001783,0.030855,-0.016660,0.753906,-0.378662,0.698730,-0.816439,-0.041856,0.214417,-0.534510
28536,,3.929325,-1.577245,8.959827,-0.003975,0.029780,-0.013184,0.762695,-0.380859,0.696533,-0.816428,-0.041846,0.214427,-0.534523
28537,,3.905602,-1.630686,8.976052,-0.001849,0.028008,-0.016555,0.751465,-0.372070,0.700439,-0.816429,-0.041852,0.214439,-0.534516
28538,,3.902737,-1.595866,8.980501,-0.001671,0.031677,-0.014839,0.753906,-0.378662,0.694336,-0.816437,-0.041844,0.214435,-0.534506
28539,,3.922462,-1.610238,8.959959,0.001893,0.029987,-0.014684,0.756104,-0.378662,0.698730,-0.816435,-0.041858,0.214428,-0.534511
28540,,3.897636,-1.594737,8.982916,-0.002906,0.032548,-0.015539,0.753662,-0.374268,0.698486,-0.816437,-0.041846,0.214424,-0.534511
