// Start Time: Unknown
// Update Rate: 100.0Hz
// Filter Profile: human (46.1)
// Option Flags: AHS Disabled ICC Disabled 
// Firmware Version: 4.3.4
PacketCounter,SampleTimeFine,Acc_X,Acc_Y,Acc_Z,Gyr_X,Gyr_Y,Gyr_Z,Mag_X,Mag_Y,Mag_Z,Quat_q0,Quat_q1,Quat_q2,Quat_q3
27626,,8.696773,0.341363,4.715198,0.015417,0.009366,-0.011596,0.886719,0.420898,0.468506,0.651925,-0.318177,-0.399341,-0.560611
27627,,8.724774,0.317438,4.676804,0.017980,0.004208,-0.011163,0.893555,0.423340,0.472900,0.651917,-0.318169,-0.399409,-0.560576
27628,,8.698499,0.298673,4.686826,0.015361,0.002602,-0.008422,0.893311,0.425537,0.468506,0.651891,-0.318190,-0.399464,-0.560555
27629,,8.722286,0.333004,4.698218,0.012704,0.006717,-0.007014,0.895508,0.427979,0.466064,0.651891,-0.318201,-0.399503,-0.560521
27630,,8.695865,0.313813,4.708542,0.012704,0.006716,-0.007013,0.893555,0.423340,0.470703,0.651871,-0.318221,-0.399536,-0.560509
27631,,8.697337,0.335845,4.696631,0.011385,0.007343,-0.005975,0.893555,0.423340,0.464111,0.651874,-0.318237,-0.399567,-0.560475
27632,,8.696802,0.370380,4.705424,0.011404,0.004483,-0.005308,0.893555,0.421143,0.470703,0.651854,-0.318271,-0.399602,-0.560454
27633,,8.692982,0.329830,4.730632,0.010597,0.001736,-0.011457,0.891357,0.423340,0.464111,0.651829,-0.318293,-0.399658,-0.560430
27634,,8.692686,0.364810,4.738933,0.010616,-0.001124,-0.010789,0.893311,0.425537,0.461914,0.651782,-0.318335,-0.399717,-0.560419
27635,,8.692701,0.366016,4.738811,0.007889,-0.000909,-0.006880,0.891113,0.425537,0.466309,0.651760,-0.318383,-0.399767,-0.560382
27636,,8.698415,0.396222,4.692909,0.006771,-0.001060,-0.008851,0.889160,0.420898,0.464111,0.651711,-0.318440,-0.399813,-0.560373
27637,,8.672276,0.377032,4.702721,0.002081,0.001974,-0.014399,0.895752,0.423340,0.468506,0.651665,-0.318484,-0.399849,-0.560376
27638,,8.724773,0.352222,4.666722,-0.001473,0.002300,-0.017306,0.893555,0.423340,0.466309,0.651587,-0.318542,-0.399874,-0.560416
27639,,8.726119,0.407980,4.662791,-0.005227,0.003403,-0.017206,0.889160,0.418701,0.462158,0.651524,-0.318600,-0.399889,-0.560445
27640,,8.758367,0.358543,4.582760,0.002237,0.006912,-0.018735,0.893311,0.425537,0.464111,0.651459,-0.318630,-0.399913,-0.560487
27641,,8.729361,0.419899,4.630369,0.004066,0.002905,-0.026950,0.891357,0.423340,0.468506,0.651382,-0.318639,-0.399972,-0.560529
27642,,8.729317,0.422234,4.630239,0.006365,-0.005369,-0.021004,0.893555,0.423340,0.464111,0.651290,-0.318686,-0.400049,-0.560554
27643,,8.747953,0.394568,4.678484,0.006030,0.000088,-0.017494,0.897949,0.425781,0.461914,0.651237,-0.318716,-0.400107,-0.560557
27644,,8.749994,0.383861,4.657613,0.002586,-0.001410,-0.021568,0.893555,0.418701,0.468750,0.651147,-0.318762,-0.400164,-0.560595
27645,,8.751985,0.373324,4.636829,-0.000992,0.001770,-0.025140,0.893555,0.423340,0.466309,0.651065,-0.318795,-0.400209,-0.560640
27646,,8.746139,0.346209,4.682836,-0.004749,0.002870,-0.025039,0.893555,0.421143,0.459961,0.650962,-0.318847,-0.400234,-0.560712
27647,,8.749676,0.356549,4.650009,0.000075,0.007638,-0.024496,0.891113,0.425537,0.464111,0.650895,-0.318862,-0.400262,-0.560761
27648,,8.749206,0.358898,4.650713,-0.002076,0.008368,-0.030268,0.891357,0.423340,0.461914,0.650793,-0.318878,-0.400288,-0.560851
27649,,8.747028,0.340243,4.663818,-0.001224,0.005403,-0.022790,0.891357,0.421143,0.459961,0.650724,-0.318906,-0.400317,-0.560894
27650,,8.825456,0.336604,4.618351,-0.001225,0.005402,-0.022787,0.888916,0.427734,0.466064,0.650640,-0.318943,-0.400344,-0.560952
27651,,8.798620,0.351335,4.637188,0.004314,0.011888,-0.014269,0.890869,0.432373,0.465820,0.650617,-0.318951,-0.400354,-0.560967
27652,,8.772006,0.332179,4.648005,0.006550,0.012195,-0.010329,0.891357,0.423340,0.461914,0.650588,-0.318971,-0.400356,-0.560988
27653,,8.749389,0.321221,4.625305,0.009125,0.007045,-0.009895,0.888916,0.425537,0.461914,0.650575,-0.318986,-0.400389,-0.560971
27654,,8.720910,0.314767,4.656427,0.009325,0.006263,-0.012896,0.888916,0.425537,0.466064,0.650536,-0.319006,-0.400425,-0.560979
27655,,8.724756,0.291103,4.615509,0.006861,0.009592,-0.014496,0.893555,0.423340,0.466309,0.650511,-0.319013,-0.400450,-0.560986
27656,,8.691948,0.310147,4.688315,0.007087,0.005951,-0.016831,0.895752,0.425537,0.461914,0.650455,-0.319035,-0.400485,-0.561014
27657,,8.703257,0.337061,4.588906,0.008691,0.005579,-0.022697,0.891357,0.421143,0.464111,0.650403,-0.319030,-0.400542,-0.561037
27658,,8.703006,0.338958,4.589241,0.005707,0.002681,-0.013296,0.893311,0.430176,0.466064,0.650350,-0.319072,-0.400580,-0.561047
27659,,8.750962,0.373264,4.603164,0.005906,0.001898,-0.016296,0.888916,0.423340,0.464111,0.650303,-0.319100,-0.400630,-0.561049
27660,,8.795822,0.332129,4.633884,0.003068,0.003933,-0.011230,0.900146,0.423584,0.464111,0.650251,-0.319151,-0.400652,-0.561065
27661,,8.799761,0.308009,4.592903,0.004129,0.009804,-0.010591,0.891113,0.427734,0.470459,0.650234,-0.319174,-0.400662,-0.561064
27662,,8.774995,0.309292,4.591081,0.002609,0.011213,-0.006558,0.893555,0.421143,0.464111,0.650209,-0.319217,-0.400650,-0.561078
27663,,8.776611,0.297474,4.571268,0.007569,0.011309,-0.006516,0.888916,0.425537,0.464111,0.650212,-0.319232,-0.400659,-0.561059
27664,,8.801933,0.319155,4.562704,0.004156,0.016553,-0.013751,0.891113,0.427734,0.461670,0.650182,-0.319240,-0.400647,-0.561098
27665,,8.800847,0.354203,4.572132,0.010491,0.010308,-0.013408,0.888916,0.427734,0.461670,0.650168,-0.319235,-0.400679,-0.561095
27666,,8.778361,0.343059,4.549275,0.002665,0.005497,-0.005225,0.891357,0.423340,0.466309,0.650136,-0.319295,-0.400686,-0.561092
27667,,8.799836,0.389792,4.581340,0.000861,0.000759,-0.014497,0.895508,0.427979,0.461670,0.650085,-0.319346,-0.400723,-0.561097
27668,,8.771582,0.383005,4.611991,0.001777,0.001699,-0.009528,0.888916,0.425537,0.464111,0.650032,-0.319411,-0.400746,-0.561104
27669,,8.773585,0.371225,4.591457,-0.000775,0.003989,-0.009297,0.891113,0.427734,0.463867,0.649999,-0.319469,-0.400760,-0.561100
27670,,8.747258,0.351179,4.601843,-0.008519,0.009820,-0.006775,0.893555,0.423340,0.461914,0.649953,-0.319551,-0.400723,-0.561133
27671,,8.722937,0.318452,4.591768,-0.007029,0.011266,-0.011468,0.891113,0.430176,0.461670,0.649918,-0.319604,-0.400699,-0.561160
27672,,8.768781,0.330966,4.618949,-0.005882,0.008567,-0.008835,0.895752,0.421143,0.462158,0.649869,-0.319676,-0.400678,-0.561191
27673,,8.748547,0.306507,4.575243,-0.009492,0.004985,-0.009244,0.893311,0.427979,0.461670,0.649824,-0.319759,-0.400664,-0.561206
27674,,8.775854,0.348264,4.553715,-0.007319,0.011012,-0.006634,0.891113,0.425537,0.464111,0.649784,-0.319834,-0.400628,-0.561234
27675,,8.773739,0.327852,4.566942,-0.005651,0.004926,-0.011168,0.895752,0.425781,0.459717,0.649740,-0.319901,-0.400628,-0.561248
27676,,8.771288,0.341130,4.588184,-0.004534,0.005083,-0.009199,0.893555,0.421143,0.462158,0.649685,-0.319978,-0.400623,-0.561271
27677,,8.775366,0.316615,4.547143,-0.000808,0.006845,-0.009955,0.886719,0.420898,0.461914,0.649656,-0.320026,-0.400628,-0.561273
27678,,8.768570,0.355537,4.609835,0.000861,0.000759,-0.014489,0.893555,0.421143,0.464111,0.649588,-0.320087,-0.400661,-0.561293
27679,,8.766850,0.335875,4.622258,0.004447,-0.002407,-0.010920,0.891357,0.421143,0.461914,0.649546,-0.320142,-0.400713,-0.561274
27680,,8.770280,0.378751,4.597152,-0.000545,0.000348,-0.011626,0.895752,0.423340,0.464111,0.649483,-0.320215,-0.400738,-0.561287
27681,,8.744218,0.359060,4.607009,0.000456,0.002325,-0.008490,0.893311,0.425537,0.466309,0.649451,-0.320275,-0.400759,-0.561275
27682,,8.746297,0.346998,4.586409,-0.007027,0.001655,-0.007640,0.895752,0.421143,0.464355,0.649389,-0.320374,-0.400753,-0.561295
27683,,8.742205,0.339476,4.619993,-0.002931,0.004707,-0.015054,0.891113,0.425537,0.464111,0.649337,-0.320424,-0.400768,-0.561315
27684,,8.770086,0.348549,4.589923,-0.004252,0.005331,-0.014022,0.891113,0.425537,0.459717,0.649270,-0.320491,-0.400769,-0.561354
27685,,8.817793,0.382463,4.604229,-0.004253,0.005331,-0.014021,0.893311,0.425537,0.461914,0.649221,-0.320547,-0.400776,-0.561374
27686,,8.801453,0.366786,4.527319,-0.005724,0.010631,-0.012484,0.891113,0.425537,0.461914,0.649166,-0.320605,-0.400755,-0.561419
27687,,8.769008,0.351210,4.591779,-0.005742,0.003883,-0.009329,0.895752,0.423340,0.459717,0.649124,-0.320679,-0.400755,-0.561425
27688,,8.768903,0.351669,4.591945,-0.003354,-0.000476,-0.005901,0.895752,0.421143,0.457764,0.649070,-0.320775,-0.400767,-0.561425
27689,,8.794759,0.372800,4.582357,-0.004423,0.003257,-0.010359,0.900146,0.427979,0.459717,0.649026,-0.320844,-0.400774,-0.561430
27690,,8.770660,0.339936,4.571971,-0.007535,0.011785,-0.003626,0.897949,0.421143,0.462158,0.648997,-0.320922,-0.400732,-0.561449
27691,,8.770159,0.340332,4.572901,-0.004491,0.008968,-0.011680,0.895508,0.427979,0.457520,0.648961,-0.320973,-0.400723,-0.561468
27692,,8.745456,0.341453,4.570924,-0.004492,0.008968,-0.011679,0.893555,0.423340,0.461914,0.648908,-0.321034,-0.400711,-0.561504
27693,,8.761460,0.325471,4.640985,-0.005492,0.006989,-0.014812,0.891357,0.421143,0.459961,0.648858,-0.321087,-0.400710,-0.561532
27694,,8.742998,0.322705,4.584726,0.000788,0.006469,-0.015797,0.895752,0.425781,0.457520,0.648797,-0.321130,-0.400726,-0.561566
27695,,8.770944,0.331947,4.554576,0.000655,0.001541,-0.011479,0.893555,0.423340,0.461914,0.648755,-0.321185,-0.400755,-0.561562
27696,,8.768638,0.345577,4.575425,0.001892,-0.000120,-0.010680,0.893555,0.423340,0.459717,0.648697,-0.321253,-0.400789,-0.561567
27697,,8.768010,0.380117,4.583782,0.000654,0.001540,-0.011478,0.891113,0.427734,0.466064,0.648655,-0.321308,-0.400817,-0.561563
27698,,8.841149,0.346698,4.584106,0.002855,0.004714,-0.008205,0.895752,0.423340,0.466309,0.648612,-0.321366,-0.400831,-0.561570
27699,,8.794444,0.335430,4.558536,-0.001096,0.013333,-0.008263,0.891113,0.427734,0.461670,0.648600,-0.321400,-0.400812,-0.561578
27700,,8.789802,0.327984,4.593135,0.000271,0.016599,-0.011780,0.895752,0.421143,0.462158,0.648567,-0.321425,-0.400785,-0.561621
27701,,8.764269,0.362587,4.599936,0.002459,0.013027,-0.005358,0.893311,0.425537,0.461914,0.648568,-0.321455,-0.400772,-0.561612
27702,,8.767596,0.371552,4.567758,0.003779,0.012402,-0.006387,0.893311,0.425537,0.464111,0.648549,-0.321491,-0.400762,-0.561621
27703,,8.745015,0.359725,4.545257,0.001054,0.012615,-0.002499,0.895508,0.427979,0.461670,0.648555,-0.321532,-0.400741,-0.561605
27704,,8.745142,0.326536,4.537808,0.006088,0.007012,-0.001134,0.893555,0.423340,0.461914,0.648542,-0.321586,-0.400746,-0.561586
27705,,8.790519,0.372715,4.572995,0.002854,0.004712,-0.008200,0.893555,0.423340,0.464111,0.648519,-0.321632,-0.400765,-0.561572
27706,,8.788569,0.352508,4.585952,0.000212,0.005960,-0.006142,0.895752,0.425537,0.461914,0.648481,-0.321699,-0.400764,-0.561578
27707,,8.791459,0.395058,4.561804,-0.003335,0.013008,-0.012190,0.893555,0.423340,0.461914,0.648454,-0.321733,-0.400746,-0.561603
27708,,8.765323,0.341841,4.564654,-0.001093,0.020071,-0.011401,0.895752,0.421143,0.466309,0.648428,-0.321754,-0.400705,-0.561651
27709,,8.716972,0.397886,4.556525,0.001547,0.018822,-0.013456,0.895752,0.425537,0.466309,0.648416,-0.321754,-0.400684,-0.561680
27710,,8.763110,0.377485,4.575873,-0.004500,0.008955,-0.011667,0.891357,0.423340,0.457520,0.648360,-0.321817,-0.400667,-0.561720
27711,,8.764369,0.399376,4.564099,0.000581,0.007244,-0.012786,0.893311,0.425537,0.455322,0.648326,-0.321854,-0.400679,-0.561730
27712,,8.791220,0.354217,4.538315,-0.005255,0.003335,-0.017136,0.900391,0.418945,0.462158,0.648245,-0.321921,-0.400693,-0.561773
27713,,8.835546,0.346255,4.577581,-0.004630,0.004029,-0.007353,0.893555,0.423340,0.461914,0.648211,-0.321995,-0.400693,-0.561771
27714,,8.805267,0.317937,4.621234,-0.004543,0.011806,-0.012320,0.895752,0.423340,0.464111,0.648162,-0.322048,-0.400671,-0.561813
27715,,8.786805,0.314571,4.565205,-0.007108,0.007345,-0.008947,0.893555,0.423340,0.459717,0.648126,-0.322117,-0.400655,-0.561826
27716,,8.761426,0.348891,4.571596,-0.001110,0.013323,-0.008246,0.900391,0.421387,0.457764,0.648096,-0.322163,-0.400631,-0.561852
27717,,8.734831,0.329070,4.582485,0.001493,0.014930,-0.010958,0.897949,0.423584,0.457520,0.648083,-0.322179,-0.400618,-0.561866
27718,,8.732576,0.309126,4.596021,0.001572,0.009222,-0.009644,0.893555,0.421143,0.464111,0.648047,-0.322223,-0.400620,-0.561881
27719,,8.733172,0.364561,4.592575,-0.001862,0.007703,-0.013715,0.893555,0.423340,0.461914,0.648007,-0.322265,-0.400626,-0.561899
27720,,8.758561,0.386131,4.583855,-0.001114,0.013321,-0.008242,0.893555,0.421143,0.462158,0.647977,-0.322311,-0.400601,-0.561926
27721,,8.782937,0.353285,4.579324,-0.001863,0.007702,-0.013712,0.897949,0.423340,0.459717,0.647937,-0.322352,-0.400606,-0.561944
27722,,8.733898,0.354781,4.574598,-0.002151,0.014192,-0.012030,0.897949,0.423340,0.461914,0.647897,-0.322391,-0.400583,-0.561985
27723,,8.727089,0.359971,4.629529,0.004049,0.005907,-0.008045,0.893555,0.423340,0.461914,0.647879,-0.322430,-0.400602,-0.561970
27724,,8.751702,0.327017,4.624584,-0.000912,0.005794,-0.008095,0.895752,0.425537,0.464111,0.647833,-0.322497,-0.400603,-0.561983
27725,,8.784223,0.310662,4.553257,0.002685,0.009382,-0.007671,0.895752,0.423340,0.461914,0.647821,-0.322531,-0.400606,-0.561976
27726,,8.775851,0.295021,4.620474,0.005453,0.006317,-0.010895,0.891357,0.423340,0.461914,0.647778,-0.322570,-0.400626,-0.561988
27727,,8.777849,0.283792,4.600244,0.006856,0.006728,-0.013746,0.895752,0.421143,0.462158,0.647750,-0.322586,-0.400659,-0.561987
27728,,8.827517,0.305512,4.594312,-0.000916,0.012531,-0.011228,0.897949,0.423340,0.461914,0.647710,-0.322628,-0.400643,-0.562021
27729,,8.825197,0.285885,4.607991,0.003091,0.014549,-0.016788,0.895752,0.425781,0.455322,0.647684,-0.322628,-0.400645,-0.562050
27730,,8.825996,0.308234,4.597052,0.007470,0.020903,-0.010234,0.898193,0.418945,0.459961,0.647677,-0.322620,-0.400626,-0.562076
27731,,8.779985,0.351636,4.567852,0.006356,0.014001,-0.009064,0.900146,0.423584,0.457520,0.647676,-0.322627,-0.400626,-0.562073
27732,,8.776045,0.310952,4.593959,0.006480,0.012182,-0.010231,0.893311,0.427734,0.466064,0.647652,-0.322646,-0.400633,-0.562085
27733,,8.798948,0.345405,4.606252,0.006354,0.014000,-0.009061,0.891357,0.423340,0.461914,0.647651,-0.322653,-0.400634,-0.562082
27734,,8.772442,0.325753,4.616948,0.006397,0.011147,-0.008405,0.891357,0.423340,0.459717,0.647625,-0.322681,-0.400636,-0.562094
27735,,8.755610,0.343586,4.548663,0.008665,0.015358,-0.006950,0.891113,0.425537,0.457520,0.647637,-0.322681,-0.400635,-0.562081
27736,,8.753169,0.323596,4.562601,0.003661,0.018094,-0.007658,0.888916,0.423340,0.455322,0.647626,-0.322698,-0.400609,-0.562103
27737,,8.725912,0.336988,4.581666,0.002388,0.009128,-0.002846,0.893555,0.423340,0.459717,0.647626,-0.322744,-0.400605,-0.562079
27738,,8.749552,0.337509,4.585653,0.002670,0.016110,-0.010790,0.893555,0.423340,0.459717,0.647601,-0.322763,-0.400589,-0.562108
27739,,8.770632,0.351053,4.610718,0.001553,0.015945,-0.012754,0.891357,0.421143,0.459961,0.647586,-0.322772,-0.400575,-0.562130
27740,,8.773872,0.360398,4.578903,-0.001095,0.017189,-0.010701,0.891357,0.423340,0.461914,0.647557,-0.322802,-0.400544,-0.562168
27741,,8.794957,0.373802,4.603957,-0.003281,0.014009,-0.013977,0.891357,0.423340,0.459717,0.647527,-0.322830,-0.400525,-0.562200
27742,,8.822633,0.382948,4.574692,-0.006873,0.010418,-0.014406,0.898193,0.418945,0.459961,0.647464,-0.322890,-0.400504,-0.562253
27743,,8.801787,0.392336,4.539717,-0.011925,0.016002,-0.015767,0.888916,0.425537,0.468262,0.647419,-0.322937,-0.400458,-0.562312
27744,,8.797619,0.351418,4.566301,-0.008338,0.019590,-0.015332,0.893555,0.421143,0.455566,0.647368,-0.322975,-0.400403,-0.562387
27745,,8.772550,0.352655,4.564898,-0.006841,0.014298,-0.016872,0.900146,0.423340,0.466309,0.647324,-0.323008,-0.400378,-0.562436
27746,,8.774234,0.341080,4.545460,-0.009491,0.015540,-0.014819,0.898193,0.418945,0.464355,0.647267,-0.323061,-0.400335,-0.562502
27747,,8.749333,0.342182,4.543743,-0.012872,0.011162,-0.018240,0.895508,0.427979,0.457520,0.647203,-0.323120,-0.400306,-0.562563
27748,,8.772937,0.342893,4.547827,-0.016766,0.014056,-0.016982,0.898193,0.418945,0.462158,0.647125,-0.323196,-0.400250,-0.562649
27749,,8.772159,0.343804,4.549258,-0.015411,0.017315,-0.020474,0.895752,0.423340,0.464111,0.647063,-0.323241,-0.400197,-0.562731
27750,,8.799687,0.352899,4.520398,-0.019211,0.014507,-0.017914,0.888916,0.425537,0.466064,0.646979,-0.323323,-0.400134,-0.562826
27751,,8.820663,0.366207,4.545632,-0.020297,0.018222,-0.022342,0.891113,0.425537,0.461914,0.646906,-0.323378,-0.400067,-0.562926
27752,,8.768732,0.380320,4.562374,-0.015309,0.022223,-0.024745,0.893311,0.425537,0.464111,0.646821,-0.323413,-0.399999,-0.563052
27753,,8.789507,0.393603,4.587958,-0.017251,0.018464,-0.011631,0.889160,0.420898,0.464111,0.646783,-0.323478,-0.399923,-0.563112
27754,,8.742650,0.381942,4.562845,-0.016621,0.016107,-0.020596,0.897949,0.427979,0.461670,0.646697,-0.323542,-0.399865,-0.563215
27755,,8.764627,0.361824,4.579377,-0.018913,0.008010,-0.019589,0.888916,0.423340,0.464111,0.646614,-0.323626,-0.399831,-0.563287
27756,,8.760892,0.408647,4.609235,-0.026188,0.006520,-0.021753,0.897949,0.421143,0.464355,0.646489,-0.323746,-0.399780,-0.563397
27757,,8.735468,0.442858,4.615208,-0.034660,0.003829,-0.024060,0.891357,0.420898,0.466309,0.646359,-0.323884,-0.399722,-0.563508
27758,,8.764224,0.506341,4.581417,-0.040374,0.004814,-0.032694,0.893555,0.423340,0.461914,0.646178,-0.324032,-0.399653,-0.563679
27759,,8.715388,0.507479,4.576096,-0.050099,0.003766,-0.035782,0.893555,0.418701,0.464355,0.645990,-0.324197,-0.399571,-0.563858
27760,,8.688262,0.521040,4.594594,-0.053591,0.005076,-0.040477,0.895752,0.423340,0.461914,0.645768,-0.324371,-0.399478,-0.564079
27761,,8.714122,0.455006,4.580960,-0.064150,-0.006512,-0.044756,0.891357,0.421143,0.459961,0.645511,-0.324592,-0.399404,-0.564298
27762,,8.666628,0.423073,4.566362,-0.066037,-0.005573,-0.055263,0.893311,0.425537,0.466309,0.645205,-0.324805,-0.399336,-0.564573
27763,,8.713708,0.403529,4.584164,-0.064910,-0.012159,-0.050174,0.893555,0.421143,0.468506,0.644920,-0.325034,-0.399286,-0.564802
27764,,8.732745,0.375850,4.631699,-0.065289,-0.016500,-0.062232,0.895752,0.421143,0.462158,0.644571,-0.325264,-0.399262,-0.565085
27765,,8.736749,0.332458,4.601177,-0.072446,-0.015958,-0.067966,0.895752,0.425537,0.461914,0.644215,-0.325492,-0.399233,-0.565381
27766,,8.757502,0.326224,4.636072,-0.078719,-0.018364,-0.066296,0.891357,0.423340,0.464111,0.643831,-0.325760,-0.399187,-0.565695
27767,,8.788980,0.324404,4.583534,-0.081350,-0.020018,-0.063550,0.889160,0.420898,0.461914,0.643465,-0.326037,-0.399138,-0.565987
27768,,8.765449,0.326604,4.579085,-0.073680,-0.020082,-0.067328,0.891357,0.420898,0.466309,0.643083,-0.326292,-0.399113,-0.566292
27769,,8.789973,0.273918,4.584208,-0.080779,-0.019392,-0.053720,0.893311,0.427979,0.461670,0.642746,-0.326584,-0.399047,-0.566552
27770,,8.836744,0.287456,4.609305,-0.078090,-0.023486,-0.055101,0.893311,0.425537,0.468506,0.642383,-0.326888,-0.398999,-0.566823
27771,,8.813324,0.288723,4.604731,-0.079439,-0.019011,-0.056466,0.891357,0.423340,0.461914,0.642041,-0.327169,-0.398940,-0.567089
27772,,8.792363,0.277651,4.579398,-0.073437,-0.019750,-0.052632,0.895752,0.423340,0.464111,0.641699,-0.327453,-0.398888,-0.567349
27773,,8.819865,0.266554,4.559930,-0.072472,-0.017791,-0.049468,0.891357,0.421143,0.459961,0.641391,-0.327722,-0.398833,-0.567581
27774,,8.846084,0.288858,4.549469,-0.067715,-0.012983,-0.048858,0.891357,0.421143,0.464111,0.641084,-0.327974,-0.398773,-0.567824
27775,,8.825969,0.244280,4.515954,-0.064288,-0.011459,-0.044786,0.893555,0.421143,0.468506,0.640815,-0.328208,-0.398713,-0.568035
27776,,8.826313,0.245414,4.515219,-0.065500,-0.008789,-0.047332,0.893311,0.427979,0.461670,0.640524,-0.328446,-0.398639,-0.568278
27777,,8.799787,0.258711,4.532688,-0.057155,-0.008136,-0.041441,0.893555,0.423340,0.464111,0.640282,-0.328654,-0.398583,-0.568469
27778,,8.799873,0.205620,4.535437,-0.049459,-0.008143,-0.045269,0.893311,0.425537,0.466309,0.640023,-0.328841,-0.398552,-0.568674
27779,,8.775773,0.207121,4.532191,-0.046223,-0.001946,-0.040663,0.893555,0.421143,0.464111,0.639814,-0.328998,-0.398506,-0.568851
27780,,8.794989,0.233282,4.576765,-0.038587,-0.006882,-0.040271,0.893555,0.421143,0.466309,0.639590,-0.329158,-0.398492,-0.569021
27781,,8.822041,0.223072,4.558121,-0.027563,-0.007417,-0.036477,0.891357,0.423340,0.461914,0.639412,-0.329279,-0.398509,-0.569138
27782,,8.847851,0.246296,4.548340,-0.022785,-0.006478,-0.033472,0.897949,0.423340,0.468506,0.639235,-0.329400,-0.398528,-0.569253
27783,,8.849340,0.269373,4.535795,-0.016810,-0.004327,-0.030328,0.893311,0.425537,0.461914,0.639099,-0.329491,-0.398557,-0.569334
27784,,8.881320,0.289143,4.472486,-0.012570,0.003861,-0.022619,0.891357,0.421143,0.464111,0.638988,-0.329572,-0.398553,-0.569414
27785,,8.878350,0.248183,4.497299,-0.011649,0.008692,-0.020118,0.891357,0.420898,0.466309,0.638916,-0.329629,-0.398538,-0.569473
27786,,8.873795,0.240283,4.531635,-0.009806,0.018357,-0.015118,0.895752,0.421143,0.464355,0.638862,-0.329675,-0.398483,-0.569545
27787,,8.904925,0.259524,4.470078,-0.003563,0.020787,-0.016756,0.895508,0.427979,0.461670,0.638836,-0.329679,-0.398446,-0.569598
27788,,8.875719,0.306360,4.499105,0.002543,0.025029,-0.017214,0.897949,0.421143,0.462158,0.638809,-0.329661,-0.398411,-0.569663
27789,,8.849026,0.286425,4.510457,0.008325,0.024059,-0.008675,0.893555,0.423340,0.461914,0.638832,-0.329633,-0.398384,-0.569671
27790,,8.829051,0.317492,4.464162,0.018175,0.018437,-0.002618,0.893555,0.423340,0.464111,0.638862,-0.329613,-0.398391,-0.569645
27791,,8.781071,0.285053,4.450949,0.026950,0.017584,-0.002720,0.893555,0.423340,0.461914,0.638920,-0.329557,-0.398429,-0.569586
27792,,8.753545,0.298627,4.470221,0.030949,0.011886,-0.003397,0.895752,0.421143,0.459961,0.638954,-0.329513,-0.398493,-0.569528
27793,,8.750297,0.312565,4.492308,0.034525,0.015515,-0.002958,0.893311,0.430176,0.463867,0.639019,-0.329438,-0.398559,-0.569452
27794,,8.746890,0.272572,4.517928,0.039902,0.018042,-0.011302,0.891357,0.420898,0.466309,0.639057,-0.329332,-0.398643,-0.569412
27795,,8.798335,0.284644,4.492417,0.040876,0.023911,-0.010592,0.891357,0.423340,0.461914,0.639128,-0.329197,-0.398713,-0.569361
27796,,8.794560,0.299593,4.515430,0.043188,0.025285,-0.008491,0.891357,0.423340,0.459717,0.639194,-0.329067,-0.398777,-0.569317
27797,,8.741049,0.292908,4.544570,0.043190,0.021388,-0.006058,0.895508,0.427979,0.463867,0.639277,-0.328941,-0.398854,-0.569243
27798,,8.744096,0.304141,4.513073,0.045512,0.018873,-0.001536,0.893555,0.423340,0.468506,0.639354,-0.328835,-0.398935,-0.569162
27799,,8.746142,0.293725,4.493179,0.047852,0.008580,0.007834,0.893311,0.425537,0.461914,0.639458,-0.328758,-0.399043,-0.569013
27800,,8.764736,0.319832,4.538574,0.050236,0.007104,0.010560,0.895752,0.421143,0.466309,0.639552,-0.328696,-0.399153,-0.568867
27801,,8.835843,0.354986,4.556627,0.051289,0.006231,0.014318,0.893311,0.427979,0.461670,0.639676,-0.328628,-0.399267,-0.568686
27802,,8.906710,0.335499,4.578622,0.053235,0.017969,0.015724,0.893311,0.427734,0.468262,0.639812,-0.328535,-0.399343,-0.568534
27803,,8.911046,0.311769,4.538620,0.055047,0.027630,0.020732,0.893311,0.427979,0.459473,0.640002,-0.328407,-0.399389,-0.568361
27804,,8.886882,0.279234,4.529339,0.065118,0.030035,0.017226,0.895752,0.423340,0.459717,0.640184,-0.328245,-0.399457,-0.568203
27805,,8.807768,0.304891,4.564242,0.066860,0.020091,0.015129,0.893311,0.425537,0.461914,0.640363,-0.328089,-0.399570,-0.568011
27806,,8.761328,0.293994,4.538496,0.069726,0.010320,0.014982,0.891113,0.427734,0.461670,0.640509,-0.327962,-0.399720,-0.567814
27807,,8.782573,0.308519,4.562859,0.067677,0.005299,0.010563,0.888916,0.423340,0.459717,0.640647,-0.327836,-0.399890,-0.567611
27808,,8.733826,0.310218,4.557289,0.067383,0.008916,0.012930,0.893311,0.425537,0.459717,0.640780,-0.327718,-0.400040,-0.567424
27809,,8.710618,0.333110,4.542521,0.061482,0.007784,0.007980,0.895752,0.425537,0.461914,0.640905,-0.327599,-0.400189,-0.567246
27810,,8.680626,0.359914,4.581907,0.068679,0.012168,0.009514,0.897949,0.423340,0.461914,0.641037,-0.327461,-0.400338,-0.567072
27811,,8.700463,0.407970,4.614935,0.064822,0.008286,0.013872,0.886719,0.425537,0.461914,0.641185,-0.327342,-0.400485,-0.566869
27812,,8.670563,0.379842,4.657782,0.062363,0.004831,0.015401,0.897949,0.427979,0.463867,0.641308,-0.327257,-0.400628,-0.566679
27813,,8.677337,0.377211,4.603540,0.056203,-0.004305,0.020095,0.893311,0.425537,0.459717,0.641434,-0.327214,-0.400781,-0.566452
27814,,8.707289,0.353262,4.564059,0.053887,-0.009573,0.020451,0.897949,0.421143,0.455566,0.641527,-0.327207,-0.400937,-0.566240
27815,,8.682394,0.387302,4.568303,0.050518,-0.013985,0.017051,0.900146,0.423584,0.457520,0.641616,-0.327203,-0.401110,-0.566019
27816,,8.722185,0.404713,4.647786,0.040648,-0.013279,0.015146,0.891113,0.427734,0.459473,0.641670,-0.327236,-0.401254,-0.565837
27817,,8.746839,0.405506,4.649924,0.036721,-0.002664,0.011526,0.893311,0.425537,0.461914,0.641744,-0.327234,-0.401360,-0.565679
27818,,8.755049,0.423142,4.583200,0.026926,-0.000922,0.007805,0.895752,0.423340,0.457520,0.641774,-0.327264,-0.401432,-0.565577
27819,,8.826427,0.457861,4.600611,0.023422,0.004242,0.000672,0.893311,0.425537,0.457520,0.641808,-0.327263,-0.401497,-0.565492
27820,,8.815476,0.450770,4.489664,0.017615,0.000272,-0.003673,0.897949,0.423584,0.451172,0.641796,-0.327295,-0.401560,-0.565443
27821,,8.786077,0.476711,4.527920,0.008243,-0.007313,-0.008458,0.897949,0.427979,0.453125,0.641757,-0.327357,-0.401633,-0.565400
27822,,8.856361,0.436254,4.560884,-0.001407,-0.011262,-0.010908,0.897949,0.423340,0.464111,0.641671,-0.327466,-0.401696,-0.565389
27823,,8.933275,0.391482,4.539965,-0.009167,-0.004500,-0.010204,0.897949,0.425781,0.459717,0.641605,-0.327572,-0.401714,-0.565390
27824,,9.007079,0.358862,4.540794,-0.008677,0.009672,-0.006667,0.897949,0.427979,0.455322,0.641557,-0.327658,-0.401674,-0.565423
27825,,8.987369,0.279952,4.501481,0.004879,0.018507,-0.010361,0.895508,0.427979,0.459473,0.641558,-0.327654,-0.401658,-0.565435
27826,,8.963301,0.192827,4.496046,0.009216,0.024907,-0.003825,0.893311,0.427979,0.455322,0.641579,-0.327643,-0.401619,-0.565446
27827,,8.960544,0.173087,4.511135,0.021508,0.035380,-0.008296,0.900146,0.425781,0.450928,0.641648,-0.327542,-0.401592,-0.565445
27828,,8.891477,0.094699,4.467710,0.030943,0.036241,-0.000413,0.895752,0.423340,0.461914,0.641739,-0.327435,-0.401576,-0.565415
27829,,8.887266,0.108916,4.491510,0.047155,0.032219,0.001212,0.895752,0.421143,0.457764,0.641870,-0.327279,-0.401616,-0.565327
27830,,8.861772,0.165438,4.487071,0.065665,0.029574,0.004952,0.891113,0.427979,0.453125,0.642019,-0.327093,-0.401705,-0.565203
27831,,8.864231,0.121758,4.460886,0.079543,0.038882,0.015795,0.897949,0.425781,0.459717,0.642258,-0.326844,-0.401792,-0.565014
27832,,8.812519,0.156849,4.466976,0.084813,0.051131,0.023053,0.888916,0.423340,0.457520,0.642532,-0.326570,-0.401838,-0.564828
27833,,8.791549,0.187560,4.422696,0.097690,0.054556,0.033260,0.895508,0.427979,0.455322,0.642881,-0.326254,-0.401897,-0.564571
27834,,8.736719,0.180009,4.454193,0.102252,0.049552,0.042438,0.895508,0.427979,0.457520,0.643235,-0.325968,-0.401966,-0.564285
27835,,8.688101,0.256023,4.434726,0.112544,0.036620,0.044072,0.897949,0.423584,0.455322,0.643602,-0.325676,-0.402107,-0.563934
27836,,8.730112,0.337124,4.480232,0.112923,0.023392,0.045556,0.900146,0.425781,0.455322,0.643929,-0.325435,-0.402285,-0.563573
27837,,8.777970,0.392989,4.483475,0.110724,0.020154,0.042349,0.895508,0.427979,0.450928,0.644255,-0.325192,-0.402476,-0.563204
27838,,8.800169,0.427711,4.496123,0.107884,0.023181,0.045603,0.900146,0.427979,0.455322,0.644574,-0.324966,-0.402642,-0.562850
27839,,8.821012,0.495698,4.517117,0.099135,0.027932,0.043173,0.895752,0.425781,0.457520,0.644899,-0.324740,-0.402774,-0.562515
27840,,8.852660,0.513062,4.455551,0.094877,0.026378,0.032399,0.895752,0.425781,0.455322,0.645164,-0.324523,-0.402911,-0.562238
27841,,8.847282,0.506028,4.490976,0.080984,0.031813,0.032814,0.895508,0.427979,0.450928,0.645437,-0.324323,-0.402996,-0.561978
27842,,8.848765,0.494176,4.472680,0.069291,0.029555,0.022769,0.897949,0.425781,0.457520,0.645641,-0.324158,-0.403068,-0.561787
27843,,8.817940,0.520576,4.512991,0.052373,0.026963,0.017391,0.897949,0.425781,0.455322,0.645815,-0.324033,-0.403114,-0.561627
27844,,8.795772,0.563124,4.486414,0.040845,0.022894,0.006155,0.893555,0.421143,0.453369,0.645911,-0.323947,-0.403152,-0.561538
27845,,8.748021,0.584929,4.469009,0.028952,0.017603,0.001509,0.895752,0.425781,0.453125,0.645984,-0.323892,-0.403187,-0.561461
27846,,8.741696,0.611577,4.511757,0.008305,0.019948,-0.006323,0.900146,0.425781,0.450928,0.645989,-0.323893,-0.403166,-0.561470
27847,,8.709543,0.617249,4.564145,-0.011910,0.016822,-0.017640,0.897949,0.423584,0.451172,0.645940,-0.323934,-0.403121,-0.561536
27848,,8.764386,0.613511,4.517607,-0.027277,0.005100,-0.022103,0.895752,0.423340,0.459717,0.645814,-0.324058,-0.403076,-0.561641
27849,,8.787513,0.505423,4.530971,-0.047862,0.004596,-0.029276,0.902344,0.430420,0.457275,0.645649,-0.324226,-0.402987,-0.561797
27850,,8.835147,0.451819,4.542844,-0.055023,0.007945,-0.035761,0.895752,0.423584,0.453125,0.645440,-0.324407,-0.402871,-0.562016
27851,,8.858254,0.398642,4.552146,-0.060852,0.018374,-0.048166,0.893555,0.423340,0.457520,0.645229,-0.324540,-0.402732,-0.562281
27852,,8.858382,0.366398,4.546223,-0.069650,0.022123,-0.048837,0.897949,0.427979,0.455322,0.644991,-0.324701,-0.402553,-0.562589
27853,,8.881300,0.367805,4.551803,-0.072107,0.026399,-0.052213,0.904785,0.423584,0.457764,0.644766,-0.324839,-0.402363,-0.562903
27854,,8.885400,0.343586,4.513319,-0.077299,0.030897,-0.051757,0.893555,0.423340,0.455322,0.644525,-0.324994,-0.402139,-0.563250
27855,,8.876606,0.349117,4.570447,-0.080060,0.034953,-0.050338,0.897705,0.430176,0.461670,0.644309,-0.325137,-0.401896,-0.563588
27856,,8.833656,0.344747,4.513377,-0.079201,0.032058,-0.042909,0.902344,0.425781,0.457520,0.644090,-0.325313,-0.401647,-0.563915
27857,,8.837825,0.319585,4.474946,-0.080335,0.027997,-0.042383,0.904541,0.425781,0.457520,0.643882,-0.325492,-0.401412,-0.564216
27858,,8.835003,0.298576,4.490134,-0.075850,0.025867,-0.033858,0.895752,0.425781,0.459717,0.643683,-0.325692,-0.401180,-0.564492
27859,,8.785246,0.243376,4.490538,-0.068552,0.024546,-0.030973,0.900146,0.423584,0.457520,0.643519,-0.325866,-0.400971,-0.564727
27860,,8.778140,0.213645,4.538805,-0.060590,0.028865,-0.022632,0.897949,0.421143,0.462158,0.643382,-0.326031,-0.400754,-0.564942
27861,,8.779444,0.146104,4.525282,-0.052034,0.033633,-0.023845,0.895752,0.425781,0.457520,0.643284,-0.326141,-0.400550,-0.565135
27862,,8.735215,0.120445,4.480483,-0.043396,0.035566,-0.024426,0.893555,0.423340,0.459717,0.643184,-0.326228,-0.400362,-0.565332
27863,,8.754940,0.187926,4.503393,-0.036162,0.037096,-0.022196,0.900146,0.427979,0.466064,0.643122,-0.326280,-0.400190,-0.565494
27864,,8.732012,0.229756,4.478464,-0.031512,0.037019,-0.017313,0.895752,0.423340,0.459717,0.643062,-0.326340,-0.400017,-0.565651
27865,,8.747523,0.288799,4.534200,-0.024908,0.025207,-0.015697,0.891357,0.421143,0.464111,0.643013,-0.326402,-0.399904,-0.565750
27866,,8.799268,0.352051,4.505431,-0.015515,0.022227,-0.005325,0.897949,0.425781,0.459717,0.642986,-0.326476,-0.399805,-0.565808
27867,,8.846588,0.352147,4.514087,-0.007390,0.024742,0.001826,0.900391,0.418945,0.462158,0.643015,-0.326518,-0.399714,-0.565815
27868,,8.871129,0.318241,4.511290,-0.006357,0.023900,0.005590,0.893311,0.427979,0.461670,0.643037,-0.326579,-0.399620,-0.565821
27869,,8.869989,0.317579,4.513578,-0.003925,0.027325,0.004113,0.895752,0.421143,0.462158,0.643083,-0.326607,-0.399527,-0.565818
27870,,8.820425,0.316810,4.509340,0.000077,0.025484,0.001082,0.895752,0.418945,0.459961,0.643104,-0.326634,-0.399452,-0.565831
27871,,8.846414,0.304506,4.494148,-0.002139,0.025121,-0.002836,0.893311,0.427979,0.461670,0.643129,-0.326649,-0.399383,-0.565843
27872,,8.795455,0.337809,4.498019,0.002816,0.025277,-0.002734,0.900146,0.423340,0.466309,0.643145,-0.326659,-0.399324,-0.565861
27873,,8.791535,0.405392,4.516492,0.002173,0.019649,-0.008210,0.895752,0.421143,0.464355,0.643151,-0.326665,-0.399293,-0.565872
27874,,8.760254,0.376293,4.560966,-0.003562,0.028565,-0.002445,0.888916,0.425537,0.464111,0.643162,-0.326689,-0.399202,-0.565910
27875,,8.719571,0.392567,4.490377,-0.001197,0.027110,0.000308,0.893555,0.421143,0.462158,0.643201,-0.326702,-0.399124,-0.565914
27876,,8.692652,0.371322,4.501886,-0.001199,0.027109,0.000312,0.891357,0.421143,0.461914,0.643221,-0.326727,-0.399040,-0.565935
27877,,8.670397,0.358289,4.479871,-0.004732,0.019645,0.002251,0.888916,0.423340,0.464111,0.643245,-0.326776,-0.398973,-0.565927
27878,,8.692352,0.337179,4.497073,-0.004412,0.012158,0.002330,0.902588,0.421387,0.459961,0.643236,-0.326858,-0.398926,-0.565923
27879,,8.687476,0.382966,4.526919,0.000784,0.007666,0.001885,0.897949,0.423340,0.461914,0.643245,-0.326922,-0.398913,-0.565886
27880,,8.758143,0.362678,4.550101,0.003299,0.008255,0.001038,0.895752,0.423340,0.457520,0.643239,-0.326986,-0.398905,-0.565861
27881,,8.754945,0.375226,4.571235,0.002284,0.001383,0.002125,0.897949,0.421143,0.459961,0.643238,-0.327064,-0.398916,-0.565809
27882,,8.777491,0.354598,4.587251,0.002433,0.003425,-0.001472,0.891357,0.421143,0.459961,0.643215,-0.327139,-0.398927,-0.565785
27883,,8.777330,0.354548,4.587563,0.000791,0.003809,0.004310,0.897949,0.421143,0.464355,0.643222,-0.327219,-0.398923,-0.565733
27884,,8.824043,0.334011,4.606964,0.003695,0.001791,-0.000684,0.893555,0.418945,0.462158,0.643198,-0.327298,-0.398938,-0.565704
27885,,8.799713,0.279832,4.607947,0.008883,0.001155,-0.003552,0.900146,0.427979,0.459717,0.643191,-0.327344,-0.398978,-0.565657
27886,,8.848059,0.335519,4.610537,0.008957,0.002175,-0.005351,0.891357,0.421143,0.461914,0.643163,-0.327394,-0.399015,-0.565634
27887,,8.849253,0.303056,4.602729,0.011307,0.008434,-0.007447,0.893311,0.425537,0.464111,0.643163,-0.327404,-0.399045,-0.565606
27888,,8.827654,0.345779,4.575264,0.006268,0.011111,-0.008177,0.891357,0.421143,0.461914,0.643139,-0.327433,-0.399048,-0.565615
27889,,8.805772,0.334055,4.552455,0.007280,0.017982,-0.009262,0.897949,0.421143,0.462158,0.643147,-0.327425,-0.399039,-0.565617
27890,,8.812361,0.330745,4.500304,0.006732,0.022404,-0.003941,0.893555,0.418945,0.455566,0.643159,-0.327430,-0.399001,-0.565628
27891,,8.808319,0.344413,4.522963,0.009784,0.022423,-0.012526,0.897949,0.423584,0.457520,0.643171,-0.327395,-0.398990,-0.565643
27892,,8.783122,0.345480,4.521474,0.008296,0.020994,-0.007917,0.898193,0.418945,0.464355,0.643175,-0.327387,-0.398972,-0.565654
27893,,8.822881,0.351301,4.584041,0.010651,0.023396,-0.007585,0.893311,0.425537,0.466309,0.643204,-0.327356,-0.398952,-0.565653
27894,,8.774839,0.318416,4.571238,0.009228,0.026841,-0.007197,0.895752,0.421143,0.455566,0.643218,-0.327335,-0.398910,-0.565679
27895,,8.770587,0.332149,4.594204,0.005841,0.025273,-0.011283,0.895508,0.427979,0.457520,0.643233,-0.327307,-0.398876,-0.565703
27896,,8.742235,0.290974,4.617826,0.003100,0.021625,-0.005044,0.902588,0.421387,0.462158,0.643236,-0.327320,-0.398838,-0.565718
27897,,8.738344,0.304186,4.640098,-0.000115,0.014391,-0.007886,0.895752,0.418945,0.457764,0.643229,-0.327349,-0.398817,-0.565725
27898,,8.745306,0.300327,4.587434,-0.002940,0.013577,-0.002274,0.895752,0.421143,0.462158,0.643215,-0.327411,-0.398780,-0.565730
27899,,8.765710,0.313619,4.612886,-0.001304,0.017041,-0.010470,0.897949,0.421143,0.462158,0.643204,-0.327431,-0.398751,-0.565752
27900,,8.773863,0.331050,4.548426,-0.000695,0.026516,-0.007402,0.893555,0.423340,0.461914,0.643203,-0.327440,-0.398686,-0.565794
27901,,8.766556,0.302371,4.596299,-0.000611,0.023681,-0.006776,0.904785,0.421387,0.462158,0.643216,-0.327446,-0.398632,-0.565813
27902,,8.771686,0.332272,4.552533,0.003251,0.019805,-0.006204,0.891357,0.421143,0.464111,0.643212,-0.327464,-0.398597,-0.565832
27903,,8.763173,0.337088,4.607973,0.003261,0.015953,-0.003784,0.893555,0.421143,0.464111,0.643225,-0.327485,-0.398574,-0.565821
27904,,8.765563,0.324846,4.588550,0.005550,0.013485,0.000766,0.898193,0.418945,0.464355,0.643230,-0.327528,-0.398553,-0.565806
27905,,8.792197,0.312669,4.572444,-0.000507,0.013143,-0.001312,0.897949,0.421143,0.459961,0.643238,-0.327575,-0.398524,-0.565790
27906,,8.792981,0.333463,4.561436,-0.001155,0.020397,0.003388,0.895752,0.418945,0.464355,0.643255,-0.327624,-0.398459,-0.565787
27907,,8.796580,0.341705,4.530260,-0.002193,0.025082,-0.002787,0.893555,0.421143,0.459961,0.643280,-0.327640,-0.398390,-0.565799
27908,,8.821010,0.308495,4.527967,-0.006223,0.030767,-0.002178,0.888916,0.423340,0.455322,0.643294,-0.327665,-0.398286,-0.565842
27909,,8.815099,0.300080,4.563598,-0.004712,0.024490,-0.001941,0.900146,0.425781,0.461914,0.643316,-0.327691,-0.398210,-0.565855
27910,,8.796038,0.329520,4.516603,0.003233,0.023647,-0.008602,0.891357,0.421143,0.464111,0.643313,-0.327691,-0.398170,-0.565887
27911,,8.764624,0.355452,4.556461,0.007173,0.020792,-0.009825,0.900391,0.421143,0.464355,0.643324,-0.327675,-0.398152,-0.565895
27912,,8.741220,0.377374,4.541946,0.008850,0.012703,-0.010766,0.891357,0.418701,0.464355,0.643301,-0.327686,-0.398163,-0.565908
27913,,8.790284,0.399954,4.537903,0.004491,0.022013,-0.007807,0.897949,0.421143,0.457764,0.643316,-0.327679,-0.398130,-0.565918
27914,,8.760594,0.392260,4.569154,0.000115,0.013582,-0.010833,0.895752,0.418945,0.459961,0.643283,-0.327714,-0.398115,-0.565946
27915,,8.784101,0.338837,4.578119,-0.002641,0.013787,-0.007024,0.895752,0.423340,0.461914,0.643272,-0.327754,-0.398088,-0.565954
27916,,8.783265,0.339436,4.579678,-0.007622,0.021323,-0.011971,0.893555,0.423340,0.464111,0.643238,-0.327790,-0.398029,-0.566014
27917,,8.764308,0.314578,4.536813,-0.009128,0.023745,-0.009785,0.895752,0.421143,0.464355,0.643229,-0.327817,-0.397955,-0.566060
27918,,8.779607,0.319539,4.596099,-0.011316,0.019529,-0.011298,0.891357,0.418701,0.466553,0.643184,-0.327873,-0.397887,-0.566127
27919,,8.807528,0.328748,4.568207,-0.008802,0.020117,-0.012131,0.897949,0.421143,0.462158,0.643162,-0.327905,-0.397830,-0.566174
27920,,8.827417,0.342170,4.594515,-0.011665,0.026998,-0.011350,0.891357,0.418701,0.464355,0.643132,-0.327940,-0.397738,-0.566252
27921,,8.785693,0.338011,4.536068,-0.010252,0.027402,-0.014145,0.895752,0.418945,0.466553,0.643116,-0.327952,-0.397657,-0.566320
27922,,8.755735,0.330200,4.567720,-0.007301,0.017689,-0.014305,0.889160,0.416504,0.464355,0.643066,-0.327995,-0.397610,-0.566384
27923,,8.779186,0.277066,4.576860,-0.000991,0.013393,-0.012776,0.895752,0.418945,0.468750,0.643042,-0.328019,-0.397598,-0.566407
27924,,8.752819,0.256849,4.586985,0.000106,0.013576,-0.010811,0.893555,0.418701,0.466553,0.643006,-0.328057,-0.397579,-0.566439
27925,,8.694265,0.240361,4.647639,0.000945,0.018401,-0.008283,0.895996,0.416504,0.464355,0.643007,-0.328070,-0.397549,-0.566451
27926,,8.743295,0.208429,4.648129,0.005975,0.019581,-0.009949,0.898193,0.418945,0.464355,0.642996,-0.328073,-0.397527,-0.566477
27927,,8.775921,0.172360,4.591624,0.009478,0.027030,-0.011837,0.895752,0.421143,0.459961,0.643018,-0.328027,-0.397499,-0.566498
27928,,8.779429,0.236799,4.556403,0.008714,0.023220,-0.016152,0.895996,0.412109,0.464600,0.643003,-0.327996,-0.397487,-0.566541
27929,,8.826787,0.238928,4.565252,0.012113,0.017098,-0.007234,0.895752,0.421143,0.466309,0.643023,-0.327980,-0.397491,-0.566526
27930,,8.875935,0.261792,4.561209,0.012449,0.013473,-0.009587,0.893555,0.423340,0.468506,0.643012,-0.327979,-0.397507,-0.566527
27931,,8.849459,0.241673,4.571545,0.014136,0.019277,-0.002123,0.893555,0.421143,0.464111,0.643054,-0.327960,-0.397501,-0.566494
27932,,8.830720,0.271396,4.524117,0.011526,0.021513,-0.001904,0.891357,0.421143,0.461914,0.643077,-0.327956,-0.397475,-0.566490
27933,,8.802305,0.284427,4.543210,0.010334,0.024154,-0.004480,0.895752,0.418945,0.466553,0.643115,-0.327930,-0.397447,-0.566481
27934,,8.754533,0.305607,4.525542,0.009329,0.021140,-0.005828,0.891357,0.416504,0.464355,0.643125,-0.327925,-0.397424,-0.566489
27935,,8.727854,0.285429,4.536232,0.009573,0.020343,-0.008795,0.893555,0.418701,0.466553,0.643142,-0.327904,-0.397413,-0.566489
27936,,8.704551,0.307132,4.521489,0.008681,0.010658,-0.007125,0.889160,0.420898,0.461914,0.643126,-0.327929,-0.397423,-0.566486
27937,,8.768514,0.313194,4.586837,0.007356,0.007426,-0.003716,0.891357,0.418701,0.464355,0.643129,-0.327961,-0.397439,-0.566453
27938,,8.768273,0.313902,4.587249,0.000475,0.002250,-0.008343,0.893555,0.423340,0.466309,0.643079,-0.328033,-0.397456,-0.566455
27939,,8.772735,0.322857,4.554724,-0.001397,0.012139,-0.006212,0.900391,0.418945,0.462158,0.643070,-0.328075,-0.397436,-0.566455
27940,,8.791482,0.260866,4.597075,-0.004101,0.017202,-0.006609,0.893799,0.416504,0.468750,0.643047,-0.328123,-0.397390,-0.566487
27941,,8.795333,0.324120,4.561235,-0.002854,0.019417,-0.008223,0.900391,0.418945,0.464355,0.643044,-0.328146,-0.397346,-0.566508
27942,,8.815480,0.283292,4.591409,-0.007390,0.016643,-0.012501,0.898193,0.418945,0.468750,0.642998,-0.328195,-0.397299,-0.566564
27943,,8.789085,0.262898,4.601542,-0.005782,0.011393,-0.014068,0.895752,0.421143,0.459961,0.642958,-0.328238,-0.397282,-0.566597
27944,,8.817576,0.272194,4.572894,-0.003820,0.008718,-0.004765,0.893555,0.421143,0.462158,0.642924,-0.328313,-0.397261,-0.566607
27945,,8.815583,0.251671,4.586170,-0.002401,0.009123,-0.007557,0.893799,0.416504,0.466553,0.642903,-0.328365,-0.397250,-0.566608
27946,,8.787650,0.264345,4.604198,-0.002746,0.012746,-0.005201,0.891357,0.418701,0.466553,0.642878,-0.328423,-0.397219,-0.566624
27947,,8.785489,0.243935,4.617778,0.003550,0.012302,-0.006067,0.891357,0.420898,0.466309,0.642877,-0.328450,-0.397212,-0.566614
27948,,8.791164,0.273911,4.573526,0.005624,0.019342,-0.005149,0.895996,0.416504,0.466553,0.642877,-0.328464,-0.397181,-0.566628
27949,,8.733754,0.278088,4.621953,0.001744,0.023201,-0.005718,0.893555,0.423340,0.464111,0.642896,-0.328466,-0.397134,-0.566638
27950,,8.782495,0.300202,4.618803,-0.002040,0.024233,-0.005676,0.893555,0.418701,0.464355,0.642893,-0.328490,-0.397068,-0.566675
27951,,8.786174,0.308932,4.587899,0.001394,0.026820,-0.003355,0.898193,0.418945,0.464355,0.642925,-0.328487,-0.397004,-0.566684
27952,,8.786577,0.275972,4.582208,0.002715,0.030049,-0.006753,0.886719,0.420898,0.461914,0.642939,-0.328476,-0.396936,-0.566722
27953,,8.762636,0.297562,4.568667,0.006822,0.029231,-0.011544,0.893555,0.418701,0.466553,0.642962,-0.328434,-0.396893,-0.566751
27954,,8.763159,0.265028,4.562751,0.004172,0.022770,-0.004739,0.893799,0.416504,0.470947,0.642969,-0.328442,-0.396848,-0.566769
27955,,8.755502,0.291013,4.605968,0.008204,0.020939,-0.007742,0.893799,0.416504,0.464355,0.642989,-0.328426,-0.396830,-0.566770
27956,,8.804330,0.313778,4.602693,0.005841,0.022375,-0.010492,0.898193,0.414307,0.466797,0.642981,-0.328421,-0.396798,-0.566803
27957,,8.779160,0.314526,4.600928,0.005762,0.021359,-0.008701,0.893555,0.418945,0.459961,0.642995,-0.328409,-0.396773,-0.566812
27958,,8.726701,0.273138,4.620418,0.007182,0.021762,-0.011488,0.900391,0.421143,0.464355,0.642989,-0.328397,-0.396753,-0.566840
27959,,8.722415,0.286841,4.642783,0.002250,0.017754,-0.009231,0.893555,0.421143,0.464111,0.642988,-0.328406,-0.396730,-0.566852
27960,,8.725006,0.275355,4.623485,0.003946,0.013522,-0.012589,0.891357,0.416504,0.466553,0.642954,-0.328426,-0.396730,-0.566879
27961,,8.711715,0.259179,4.546809,-0.000366,0.019985,-0.009014,0.893799,0.416504,0.466553,0.642954,-0.328437,-0.396692,-0.566899
27962,,8.736536,0.227302,4.544346,0.000092,0.026064,-0.019737,0.893799,0.416504,0.466553,0.642919,-0.328421,-0.396649,-0.566978
27963,,8.756413,0.241838,4.570320,0.006557,0.011288,-0.012795,0.900391,0.416748,0.466553,0.642903,-0.328427,-0.396665,-0.566982
27964,,8.805727,0.264974,4.566166,0.011431,0.010444,-0.010861,0.895752,0.421143,0.464355,0.642881,-0.328436,-0.396690,-0.566984
27965,,8.810034,0.274758,4.534194,0.009884,0.016699,-0.011075,0.895752,0.421143,0.468506,0.642885,-0.328420,-0.396695,-0.566985
27966,,8.799354,0.259504,4.601863,0.008714,0.015497,-0.011252,0.893555,0.418945,0.459961,0.642866,-0.328423,-0.396697,-0.567004
27967,,8.772971,0.239392,4.611866,0.004954,0.012691,-0.008823,0.895752,0.421143,0.464355,0.642861,-0.328438,-0.396698,-0.567000
27968,,8.773587,0.315945,4.596367,0.008610,0.018318,-0.011856,0.893555,0.423340,0.466309,0.642848,-0.328430,-0.396695,-0.567021
27969,,8.748734,0.262283,4.598743,0.004393,0.021956,-0.007676,0.897949,0.421143,0.464355,0.642864,-0.328423,-0.396662,-0.567031
27970,,8.778547,0.292896,4.558440,0.007287,0.015090,-0.008458,0.895996,0.416748,0.462158,0.642850,-0.328436,-0.396658,-0.567042
27971,,8.777952,0.293847,4.559524,0.006144,0.010054,-0.006243,0.893555,0.418701,0.466553,0.642848,-0.328460,-0.396666,-0.567024
27972,,8.775906,0.273838,4.572859,0.007489,0.009444,-0.007241,0.891357,0.418701,0.466553,0.642829,-0.328491,-0.396679,-0.567019
27973,,8.780378,0.283219,4.540648,0.006296,0.012077,-0.009814,0.898193,0.414307,0.471191,0.642822,-0.328501,-0.396687,-0.567015
27974,,8.757419,0.250326,4.530002,0.003500,0.016117,-0.008423,0.893799,0.414307,0.468994,0.642804,-0.328526,-0.396665,-0.567037
27975,,8.727692,0.242749,4.560512,0.007820,0.009656,-0.011989,0.893555,0.418945,0.462158,0.642788,-0.328535,-0.396689,-0.567033
27976,,8.799384,0.299839,4.568078,0.004394,0.007063,-0.014317,0.895996,0.414307,0.462402,0.642739,-0.328569,-0.396711,-0.567054
27977,,8.773001,0.334255,4.573178,0.002868,0.009482,-0.012138,0.891357,0.416504,0.470947,0.642714,-0.328593,-0.396721,-0.567060
27978,,8.772407,0.335513,4.574226,0.005097,0.014706,-0.012381,0.891357,0.416504,0.466553,0.642686,-0.328608,-0.396716,-0.567087
27979,,8.764875,0.361975,4.616680,0.000325,0.012722,-0.013711,0.891357,0.416504,0.459961,0.642660,-0.328628,-0.396711,-0.567108
27980,,8.793624,0.317185,4.592871,0.000902,0.014510,-0.005814,0.889404,0.411865,0.466797,0.642645,-0.328668,-0.396687,-0.567119
27981,,8.772243,0.304805,4.569780,0.003414,0.015101,-0.006629,0.900391,0.418945,0.462158,0.642648,-0.328686,-0.396672,-0.567116
27982,,8.789164,0.276786,4.620291,0.003699,0.010469,-0.007201,0.897949,0.423340,0.461914,0.642626,-0.328727,-0.396671,-0.567119
27983,,8.818105,0.231994,4.596188,0.005045,0.009860,-0.008197,0.893555,0.418701,0.466553,0.642617,-0.328751,-0.396679,-0.567109
27984,,8.819126,0.253912,4.584693,0.008542,0.013463,-0.007650,0.893799,0.412109,0.466797,0.642605,-0.328766,-0.396683,-0.567111
27985,,8.802913,0.250388,4.528202,0.012506,0.010624,-0.008855,0.902588,0.418945,0.466553,0.642608,-0.328763,-0.396712,-0.567089
27986,,8.745557,0.255080,4.575581,0.014474,0.016647,-0.006131,0.889160,0.420898,0.464111,0.642617,-0.328754,-0.396718,-0.567079
27987,,8.772033,0.298910,4.555747,0.018665,0.016838,-0.012687,0.895752,0.421143,0.466309,0.642632,-0.328706,-0.396750,-0.567068
27988,,8.741730,0.346215,4.582178,0.019237,0.018629,-0.004789,0.893799,0.416504,0.466553,0.642654,-0.328678,-0.396762,-0.567050
27989,,8.716771,0.346987,4.579912,0.019158,0.017617,-0.003002,0.891357,0.416504,0.462158,0.642699,-0.328645,-0.396777,-0.567008
27990,,8.683488,0.352025,4.631015,0.019550,0.010165,-0.002966,0.895752,0.418945,0.464355,0.642713,-0.328644,-0.396814,-0.566967
27991,,8.714058,0.328381,4.594426,0.017113,0.010582,-0.003936,0.898193,0.416748,0.466553,0.642738,-0.328636,-0.396848,-0.566920
27992,,8.734476,0.288185,4.624225,0.015841,0.012200,-0.004723,0.893555,0.418701,0.468750,0.642744,-0.328638,-0.396870,-0.566896
27993,,8.715021,0.297327,4.587964,0.012970,0.004172,-0.010591,0.895752,0.418701,0.470947,0.642730,-0.328648,-0.396924,-0.566869
27994,,8.763063,0.300046,4.595787,0.015922,0.002149,-0.015542,0.893799,0.414307,0.468994,0.642682,-0.328659,-0.396992,-0.566869
27995,,8.782092,0.293997,4.632659,0.012017,-0.002670,-0.009558,0.898193,0.418945,0.466553,0.642656,-0.328694,-0.397063,-0.566829
27996,,8.811289,0.304301,4.603157,0.015768,0.000130,-0.011970,0.895752,0.423340,0.464111,0.642616,-0.328717,-0.397133,-0.566811
27997,,8.811140,0.306049,4.603325,0.015477,0.004760,-0.011397,0.893555,0.418701,0.464355,0.642605,-0.328716,-0.397193,-0.566782
27998,,8.762607,0.306859,4.596207,0.017803,0.007162,-0.011029,0.898193,0.418945,0.464355,0.642586,-0.328713,-0.397248,-0.566768
27999,,8.758725,0.321368,4.617414,0.017877,0.008168,-0.012811,0.898193,0.418945,0.459961,0.642581,-0.328691,-0.397306,-0.566744
28000,,8.758361,0.322987,4.617991,0.013867,0.006171,-0.007436,0.891357,0.418701,0.464355,0.642566,-0.328710,-0.397349,-0.566721
28001,,8.811566,0.279393,4.597728,0.012897,0.011818,-0.015363,0.895752,0.425537,0.466309,0.642554,-0.328689,-0.397386,-0.566721
28002,,8.762726,0.279973,4.591209,0.014553,0.013814,-0.005503,0.895996,0.416748,0.459961,0.642556,-0.328689,-0.397399,-0.566709
28003,,8.813964,0.269728,4.579086,0.014199,0.006372,-0.012176,0.898193,0.418945,0.466553,0.642544,-0.328686,-0.397452,-0.566688
28004,,8.784403,0.262493,4.609073,0.014843,0.009182,-0.006069,0.886963,0.414063,0.466553,0.642540,-0.328696,-0.397484,-0.566664
28005,,8.809609,0.285153,4.601123,0.014917,0.010188,-0.007852,0.900391,0.418945,0.462158,0.642549,-0.328689,-0.397519,-0.566633
28006,,8.809120,0.286592,4.601970,0.013828,0.009992,-0.009818,0.893555,0.418701,0.468750,0.642533,-0.328693,-0.397550,-0.566626
28007,,8.780991,0.300124,4.619604,0.013568,0.010797,-0.006856,0.900146,0.423584,0.461914,0.642544,-0.328690,-0.397578,-0.566597
28008,,8.781873,0.322346,4.608222,0.013423,0.017439,-0.009853,0.893555,0.421143,0.462158,0.642540,-0.328675,-0.397584,-0.566606
28009,,8.733194,0.268554,4.606719,0.009975,0.018663,-0.014579,0.898193,0.416748,0.460205,0.642538,-0.328646,-0.397589,-0.566621
28010,,8.752512,0.337366,4.628041,0.002110,0.016691,-0.007412,0.891357,0.421143,0.461914,0.642525,-0.328673,-0.397565,-0.566638
28011,,8.729694,0.304224,4.617464,0.000231,0.011669,-0.011915,0.893555,0.423340,0.461914,0.642501,-0.328700,-0.397560,-0.566652
28012,,8.737784,0.300489,4.564735,-0.002615,0.010879,-0.006365,0.893555,0.418945,0.459961,0.642469,-0.328760,-0.397538,-0.566669
28013,,8.735720,0.280304,4.578242,0.002589,0.010248,-0.009153,0.897949,0.425781,0.464111,0.642454,-0.328789,-0.397541,-0.566667
28014,,8.761425,0.248298,4.574777,0.001798,0.005422,-0.011690,0.893799,0.414307,0.464600,0.642404,-0.328840,-0.397558,-0.566683
28015,,8.812933,0.237753,4.562310,0.000636,0.004220,-0.011874,0.902344,0.423584,0.464111,0.642366,-0.328887,-0.397579,-0.566684
28016,,8.838257,0.260231,4.554156,-0.003183,0.009067,-0.014249,0.900391,0.418945,0.464355,0.642307,-0.328940,-0.397572,-0.566724
28017,,8.837348,0.315659,4.550386,0.005020,0.009833,-0.008173,0.895996,0.416748,0.462158,0.642298,-0.328965,-0.397581,-0.566714
28018,,8.836639,0.316855,4.551679,0.007268,0.019880,-0.012579,0.891357,0.418701,0.466553,0.642284,-0.328956,-0.397568,-0.566744
28019,,8.811618,0.317458,4.549531,0.004421,0.019090,-0.007030,0.891357,0.418701,0.462158,0.642296,-0.328959,-0.397543,-0.566746
28020,,8.768070,0.270956,4.515030,0.004233,0.020901,-0.005852,0.891357,0.418701,0.462158,0.642296,-0.328971,-0.397505,-0.566766
28021,,8.784511,0.243235,4.566470,0.006740,0.021491,-0.006654,0.895752,0.418945,0.464355,0.642318,-0.328960,-0.397479,-0.566766
28022,,8.788729,0.252198,4.535048,0.004342,0.018082,-0.005242,0.895996,0.416748,0.462158,0.642315,-0.328981,-0.397450,-0.566777
28023,,8.771079,0.226850,4.491423,0.003219,0.013058,-0.003040,0.900391,0.418945,0.462158,0.642324,-0.329012,-0.397435,-0.566759
28024,,8.787456,0.253554,4.537439,0.004006,0.010636,-0.011914,0.898193,0.418945,0.462158,0.642289,-0.329041,-0.397443,-0.566777
28025,,8.812578,0.276089,4.529693,0.009771,0.011818,-0.006810,0.895752,0.418945,0.462158,0.642296,-0.329048,-0.397456,-0.566756
28026,,8.787887,0.276305,4.526922,0.006810,0.013846,-0.001872,0.895752,0.423340,0.459717,0.642300,-0.329078,-0.397444,-0.566742
28027,,8.783646,0.289610,4.548687,0.008233,0.014239,-0.004642,0.895752,0.421143,0.466309,0.642315,-0.329087,-0.397442,-0.566721
28028,,8.812160,0.299167,4.520807,0.011712,0.017842,-0.004079,0.897949,0.421143,0.462158,0.642326,-0.329087,-0.397435,-0.566714
28029,,8.784164,0.257691,4.543575,0.008042,0.016049,-0.003463,0.898193,0.418945,0.464355,0.642348,-0.329093,-0.397424,-0.566693
28030,,8.805569,0.292464,4.556624,0.005910,0.011834,-0.005013,0.898193,0.416748,0.458008,0.642336,-0.329127,-0.397421,-0.566689
28031,,8.807177,0.259391,4.549497,0.006958,0.007208,0.001125,0.895752,0.421143,0.457764,0.642351,-0.329171,-0.397428,-0.566641
28032,,8.804712,0.293417,4.558219,0.010776,0.011007,-0.003051,0.893555,0.418945,0.459961,0.642356,-0.329193,-0.397443,-0.566614
28033,,8.811443,0.268646,4.518056,0.009351,0.010614,-0.000280,0.900391,0.418945,0.457764,0.642378,-0.329217,-0.397448,-0.566571
28034,,8.838060,0.311391,4.497908,0.009122,0.016244,-0.001489,0.886963,0.416504,0.464355,0.642393,-0.329232,-0.397438,-0.566551
28035,,8.833625,0.324741,4.520001,0.011515,0.019648,-0.002892,0.893555,0.423340,0.464111,0.642429,-0.329219,-0.397425,-0.566528
28036,,8.832729,0.325579,4.521692,0.010430,0.019449,-0.004860,0.893555,0.421143,0.462158,0.642438,-0.329217,-0.397407,-0.566531
28037,,8.788867,0.333431,4.482375,0.007920,0.018858,-0.004058,0.891357,0.420898,0.466309,0.642464,-0.329215,-0.397388,-0.566516
28038,,8.782816,0.325965,4.517122,0.004328,0.018068,-0.005226,0.893799,0.416504,0.458008,0.642459,-0.329236,-0.397359,-0.566530
28039,,8.756497,0.305177,4.527040,0.008263,0.010413,-0.002241,0.900391,0.416748,0.462158,0.642473,-0.329260,-0.397365,-0.566495
28040,,8.785327,0.314345,4.498709,0.003322,0.010234,-0.002423,0.893555,0.423340,0.461914,0.642465,-0.329311,-0.397358,-0.566481
28041,,8.799995,0.319863,4.557376,0.004365,0.014249,-0.002838,0.895752,0.418945,0.457764,0.642478,-0.329335,-0.397341,-0.566462
28042,,8.801460,0.286732,4.550600,0.002047,0.011847,-0.003216,0.886963,0.416504,0.468750,0.642466,-0.329383,-0.397327,-0.566458
28043,,8.822797,0.321197,4.563742,0.002899,0.017673,-0.002453,0.895752,0.418945,0.462158,0.642486,-0.329404,-0.397295,-0.566447
28044,,8.820399,0.300808,4.577907,0.007838,0.017850,-0.002266,0.891357,0.418701,0.459961,0.642495,-0.329421,-0.397270,-0.566444
28045,,8.828525,0.296765,4.525688,0.005520,0.015448,-0.002644,0.891357,0.418701,0.459961,0.642513,-0.329439,-0.397253,-0.566425
28046,,8.826181,0.276672,4.539742,0.010611,0.017629,-0.006017,0.898193,0.416748,0.464355,0.642519,-0.329437,-0.397247,-0.566422
28047,,8.826954,0.298545,4.528633,0.003506,0.017052,-0.010143,0.895752,0.418945,0.462158,0.642517,-0.329442,-0.397232,-0.566433
28048,,8.800559,0.278181,4.538645,0.006053,0.013826,-0.008554,0.898193,0.414307,0.466797,0.642499,-0.329463,-0.397228,-0.566444
28049,,8.825642,0.300426,4.531066,0.002311,0.011033,-0.006167,0.902344,0.423584,0.466309,0.642494,-0.329497,-0.397222,-0.566435
28050,,8.800913,0.300677,4.528304,-0.000086,0.016261,-0.011313,0.891357,0.416504,0.459961,0.642461,-0.329527,-0.397195,-0.566474
28051,,8.773869,0.334393,4.533863,-0.000742,0.020693,-0.006001,0.902588,0.416748,0.464355,0.642470,-0.329543,-0.397149,-0.566486
28052,,8.767662,0.326611,4.568782,0.000262,0.019890,-0.002249,0.898193,0.416748,0.460205,0.642474,-0.329577,-0.397100,-0.566496
28053,,8.746358,0.313601,4.546023,-0.000820,0.019689,-0.004218,0.895996,0.414307,0.468994,0.642487,-0.329601,-0.397054,-0.566500
28054,,8.771726,0.280797,4.543672,0.000301,0.016074,0.000136,0.895996,0.414307,0.468994,0.642489,-0.329651,-0.397011,-0.566498
28055,,8.797030,0.247956,4.541461,0.000141,0.022699,-0.002846,0.893799,0.416504,0.464355,0.642512,-0.329666,-0.396956,-0.566502
28056,,8.818389,0.228046,4.560232,0.009630,0.026679,-0.000106,0.895996,0.416504,0.468750,0.642549,-0.329657,-0.396903,-0.566503
28057,,8.812990,0.295830,4.578243,0.006581,0.024267,-0.007194,0.898193,0.416748,0.458008,0.642574,-0.329638,-0.396868,-0.566510
28058,,8.798838,0.257808,4.515021,0.005919,0.028698,-0.001878,0.893555,0.418701,0.464355,0.642605,-0.329630,-0.396806,-0.566523
28059,,8.795516,0.291695,4.525228,0.008388,0.024473,0.001492,0.895996,0.416504,0.466553,0.642658,-0.329621,-0.396761,-0.566499
28060,,8.770206,0.291515,4.523587,0.013088,0.030273,0.000488,0.893555,0.421143,0.462158,0.642709,-0.329591,-0.396708,-0.566496
28061,,8.763647,0.283986,4.559037,0.017104,0.023626,0.001696,0.893799,0.416504,0.462158,0.642775,-0.329558,-0.396690,-0.566453
28062,,8.758902,0.297542,4.581422,0.020001,0.020592,-0.001447,0.893311,0.425537,0.464111,0.642814,-0.329527,-0.396694,-0.566424
28063,,8.761739,0.285812,4.562589,0.015257,0.018601,-0.002819,0.902344,0.423584,0.464111,0.642855,-0.329504,-0.396694,-0.566390
28064,,8.761182,0.286945,4.563588,0.018707,0.005323,-0.005337,0.889160,0.418701,0.466553,0.642847,-0.329514,-0.396749,-0.566355
28065,,8.779211,0.335218,4.596193,0.015514,0.000911,-0.008873,0.900146,0.423340,0.466309,0.642836,-0.329529,-0.396818,-0.566311
28066,,8.807001,0.324517,4.579687,0.010772,-0.001079,-0.010249,0.891602,0.414307,0.464600,0.642788,-0.329574,-0.396876,-0.566299
28067,,8.808485,0.346770,4.567181,0.008104,0.004952,-0.012440,0.900391,0.416748,0.458008,0.642762,-0.329594,-0.396916,-0.566288
28068,,8.808073,0.348209,4.567866,0.006512,0.011184,-0.012658,0.895752,0.418945,0.464355,0.642731,-0.329611,-0.396930,-0.566303
28069,,8.809630,0.316071,4.561063,0.005237,0.012793,-0.013452,0.898193,0.418945,0.464355,0.642713,-0.329616,-0.396939,-0.566314
28070,,8.760878,0.316138,4.554069,0.003807,0.012405,-0.010689,0.891357,0.418945,0.457764,0.642682,-0.329644,-0.396936,-0.566336
28071,,8.727671,0.266751,4.609464,0.001222,0.010816,-0.008121,0.895996,0.416748,0.462158,0.642669,-0.329678,-0.396931,-0.566335
28072,,8.758236,0.297080,4.568591,0.001419,0.009004,-0.009297,0.895996,0.416504,0.466553,0.642634,-0.329724,-0.396934,-0.566346
28073,,8.808191,0.265577,4.569470,0.000385,0.004994,-0.008890,0.893799,0.414307,0.462402,0.642606,-0.329775,-0.396946,-0.566339
28074,,8.788539,0.328263,4.528176,-0.002287,0.011023,-0.011081,0.893799,0.416504,0.464355,0.642562,-0.329826,-0.396930,-0.566371
28075,,8.807347,0.267688,4.570974,-0.000189,0.006975,-0.019149,0.898193,0.416748,0.466553,0.642507,-0.329854,-0.396951,-0.566401
28076,,8.800959,0.315462,4.600024,-0.000662,0.009598,-0.015015,0.893555,0.418945,0.457764,0.642451,-0.329896,-0.396951,-0.566441
28077,,8.785583,0.311622,4.543159,-0.000389,0.008784,-0.017968,0.900391,0.421143,0.464355,0.642403,-0.329922,-0.396964,-0.566472
28078,,8.805356,0.326535,4.568572,-0.004096,0.010801,-0.019751,0.895752,0.418945,0.462158,0.642331,-0.329960,-0.396962,-0.566532
28079,,8.806936,0.294558,4.561824,-0.004220,0.013609,-0.020348,0.898438,0.409912,0.462646,0.642280,-0.329979,-0.396952,-0.566585
28080,,8.806297,0.296047,4.562961,-0.007882,0.011816,-0.019754,0.893799,0.414307,0.462402,0.642206,-0.330027,-0.396934,-0.566654
28081,,8.835798,0.251635,4.539755,-0.009312,0.011427,-0.016993,0.900391,0.416748,0.460205,0.642152,-0.330076,-0.396912,-0.566703
28082,,8.832986,0.286572,4.548663,-0.006456,0.012202,-0.022507,0.893555,0.418945,0.462158,0.642073,-0.330113,-0.396903,-0.566777
28083,,8.834432,0.254479,4.542256,-0.009687,0.019851,-0.018784,0.895752,0.418945,0.462158,0.642030,-0.330135,-0.396855,-0.566846
28084,,8.828014,0.247549,4.577289,-0.008736,0.022861,-0.017407,0.895996,0.416504,0.464355,0.641981,-0.330159,-0.396796,-0.566929
28085,,8.853282,0.215801,4.575473,-0.005031,0.020845,-0.015620,0.895752,0.421143,0.466309,0.641956,-0.330170,-0.396753,-0.566981
28086,,8.801865,0.249216,4.577097,-0.002727,0.023246,-0.015225,0.898193,0.418945,0.466553,0.641922,-0.330179,-0.396704,-0.567049
28087,,8.770666,0.296004,4.603263,-0.002604,0.020436,-0.014624,0.895996,0.416504,0.468750,0.641903,-0.330185,-0.396668,-0.567092
28088,,8.727143,0.303415,4.563484,-0.001982,0.014651,-0.002003,0.900391,0.416748,0.464355,0.641889,-0.330244,-0.396624,-0.567103
28089,,8.728818,0.269901,4.556763,-0.005440,0.011046,-0.002592,0.893555,0.418945,0.462158,0.641881,-0.330310,-0.396590,-0.567098
28090,,8.757019,0.203274,4.545932,-0.005466,0.006242,0.001554,0.891357,0.418701,0.464355,0.641859,-0.330408,-0.396562,-0.567085
28091,,8.806947,0.170944,4.547182,-0.006643,0.013651,-0.005158,0.893799,0.414307,0.464600,0.641847,-0.330465,-0.396521,-0.567095
28092,,8.772808,0.175243,4.598174,-0.001884,0.020451,-0.007917,0.895996,0.412109,0.464600,0.641831,-0.330494,-0.396471,-0.567132
28093,,8.778806,0.204988,4.554371,-0.000581,0.023647,-0.011266,0.895996,0.412109,0.458008,0.641831,-0.330491,-0.396424,-0.567165
28094,,8.751368,0.239049,4.560165,0.002201,0.023426,-0.014999,0.893799,0.412109,0.462402,0.641812,-0.330483,-0.396391,-0.567214
28095,,8.777535,0.282710,4.540993,0.000971,0.021225,-0.013419,0.891602,0.412109,0.460205,0.641804,-0.330478,-0.396361,-0.567248
28096,,8.800818,0.284143,4.546566,-0.004016,0.011431,-0.005342,0.900391,0.416748,0.464355,0.641778,-0.330543,-0.396332,-0.567259
28097,,8.794966,0.275988,4.580422,-0.000610,0.005429,0.003536,0.895996,0.416748,0.459961,0.641785,-0.330621,-0.396320,-0.567215
28098,,8.800170,0.284086,4.547824,0.002252,0.006208,-0.001972,0.898193,0.414307,0.462402,0.641766,-0.330687,-0.396321,-0.567196
28099,,8.819761,0.297630,4.573547,0.000107,0.018857,-0.000416,0.895996,0.414307,0.460205,0.641789,-0.330717,-0.396274,-0.567186
28100,,8.818745,0.297923,4.575487,-0.002224,0.025061,-0.007320,0.895996,0.414307,0.462402,0.641787,-0.330733,-0.396212,-0.567222
28101,,8.770968,0.318031,4.556960,-0.004709,0.029268,-0.010675,0.898193,0.418945,0.462158,0.641794,-0.330729,-0.396135,-0.567271
28102,,8.771336,0.339741,4.546629,-0.005250,0.022636,-0.014408,0.895996,0.416504,0.466553,0.641760,-0.330748,-0.396082,-0.567335
28103,,8.722306,0.339356,4.540034,-0.002564,0.016617,-0.012227,0.893555,0.418701,0.464355,0.641741,-0.330769,-0.396055,-0.567364
28104,,8.697507,0.339856,4.537223,-0.005585,0.014194,-0.019320,0.891357,0.418701,0.459961,0.641673,-0.330805,-0.396033,-0.567434
28105,,8.675164,0.306874,4.526308,-0.006889,0.010997,-0.015973,0.895752,0.418945,0.464355,0.641624,-0.330849,-0.396018,-0.567475
28106,,8.700958,0.275511,4.523652,-0.011038,0.012172,-0.027400,0.898193,0.416748,0.462158,0.641523,-0.330889,-0.396004,-0.567575
28107,,8.749230,0.224485,4.537765,-0.010836,0.010361,-0.028575,0.898193,0.414307,0.466797,0.641431,-0.330923,-0.396000,-0.567663
28108,,8.817771,0.187191,4.576264,-0.010146,0.005928,-0.033881,0.893555,0.418701,0.468750,0.641300,-0.330967,-0.396018,-0.567772
28109,,8.869412,0.178566,4.564781,-0.008925,0.008125,-0.035446,0.900391,0.418945,0.466553,0.641187,-0.330987,-0.396038,-0.567874
28110,,8.944224,0.225122,4.552859,-0.007854,0.008327,-0.033469,0.891357,0.418701,0.462158,0.641062,-0.331020,-0.396051,-0.567987
28111,,8.901172,0.234062,4.512228,-0.003837,0.009959,-0.022634,0.891357,0.421143,0.461914,0.640998,-0.331044,-0.396058,-0.568040
28112,,8.893793,0.206291,4.558478,-0.007940,0.002178,-0.011432,0.893799,0.416504,0.466553,0.640926,-0.331134,-0.396059,-0.568068
28113,,8.873653,0.193097,4.533907,-0.004938,-0.000196,-0.000211,0.891357,0.418701,0.462158,0.640904,-0.331235,-0.396058,-0.568035
28114,,8.855654,0.145810,4.501998,-0.001302,0.014656,0.004718,0.893799,0.416504,0.466553,0.640913,-0.331303,-0.396009,-0.568020
28115,,8.851618,0.103865,4.529021,0.009116,0.026475,0.004754,0.893799,0.416504,0.462158,0.640980,-0.331292,-0.395954,-0.567987
28116,,8.795898,0.148767,4.551453,0.010412,0.029669,0.001419,0.891602,0.407471,0.467041,0.641030,-0.331273,-0.395896,-0.567983
28117,,8.719966,0.180680,4.549406,0.013064,0.032256,-0.002894,0.891602,0.414307,0.466797,0.641094,-0.331219,-0.395847,-0.567977
28118,,8.664001,0.226341,4.572149,0.013135,0.033250,-0.004658,0.895996,0.416504,0.464355,0.641138,-0.331171,-0.395791,-0.567995
28119,,8.668108,0.235942,4.541748,0.021275,0.029609,-0.010523,0.900146,0.423340,0.466309,0.641188,-0.331083,-0.395786,-0.567992
28120,,8.696517,0.246452,4.515085,0.022462,0.022211,-0.003829,0.893799,0.416504,0.462158,0.641227,-0.331036,-0.395795,-0.567970
28121,,8.763826,0.262778,4.549693,0.019568,0.012181,-0.006203,0.898193,0.416748,0.460205,0.641252,-0.331011,-0.395834,-0.567928
28122,,8.840826,0.274337,4.530547,0.016432,0.017011,-0.001885,0.895752,0.418945,0.468750,0.641281,-0.331000,-0.395842,-0.567897
28123,,8.934516,0.257468,4.561753,0.019874,0.020616,-0.001275,0.895996,0.416504,0.466553,0.641337,-0.330960,-0.395847,-0.567853
28124,,8.961404,0.246400,4.547755,0.020254,0.030045,0.001882,0.895996,0.414307,0.460205,0.641403,-0.330910,-0.395812,-0.567832
28125,,8.883822,0.257563,4.558313,0.017476,0.035055,0.001484,0.897949,0.421143,0.464355,0.641492,-0.330842,-0.395759,-0.567808
28126,,8.831895,0.290266,4.560360,0.015523,0.028036,0.000492,0.893799,0.416504,0.466553,0.641546,-0.330808,-0.395725,-0.567791
28127,,8.758629,0.288569,4.549818,0.015579,0.024237,0.002854,0.902588,0.416748,0.464355,0.641615,-0.330780,-0.395700,-0.567748
28128,,8.729410,0.301308,4.568166,0.017162,0.026610,-0.003425,0.900391,0.414551,0.464600,0.641656,-0.330738,-0.395678,-0.567740
28129,,8.680095,0.300764,4.561962,0.018018,0.028624,-0.000267,0.895996,0.414307,0.464600,0.641728,-0.330683,-0.395650,-0.567710
28130,,8.659024,0.288313,4.539254,0.016569,0.018984,-0.005392,0.893799,0.416504,0.462158,0.641749,-0.330661,-0.395656,-0.567695
28131,,8.654108,0.302113,4.561268,0.015132,0.018596,-0.002645,0.891602,0.414307,0.466797,0.641790,-0.330639,-0.395656,-0.567661
28132,,8.707792,0.258314,4.543230,0.011633,0.018787,-0.005615,0.891357,0.416504,0.464355,0.641801,-0.330633,-0.395648,-0.567658
28133,,8.746821,0.286469,4.594327,0.010638,0.019571,-0.009355,0.900391,0.418945,0.466553,0.641817,-0.330610,-0.395643,-0.567657
28134,,8.799555,0.297538,4.571617,0.010789,0.021556,-0.012890,0.893799,0.416504,0.464355,0.641810,-0.330584,-0.395635,-0.567685
28135,,8.828269,0.308125,4.544617,0.009931,0.019537,-0.016040,0.898193,0.416748,0.460205,0.641806,-0.330550,-0.395640,-0.567706
28136,,8.821899,0.301883,4.578916,0.006979,0.008520,-0.016657,0.893555,0.418701,0.466553,0.641760,-0.330564,-0.395673,-0.567728
28137,,8.880804,0.321106,4.522228,0.007544,0.011353,-0.010554,0.895996,0.414307,0.462402,0.641751,-0.330571,-0.395688,-0.567722
28138,,8.878630,0.301426,4.535936,0.004825,0.012568,-0.008605,0.891357,0.418701,0.462158,0.641730,-0.330598,-0.395685,-0.567732
28139,,8.856405,0.267861,4.525171,0.010107,0.017406,-0.001091,0.900391,0.418945,0.466553,0.641765,-0.330599,-0.395673,-0.567702
28140,,8.816038,0.264268,4.609092,0.007541,0.020604,-0.002678,0.891602,0.409668,0.462646,0.641780,-0.330606,-0.395643,-0.567701
28141,,8.825649,0.205922,4.562533,0.008623,0.025597,-0.004825,0.898193,0.416748,0.466553,0.641818,-0.330581,-0.395606,-0.567699
28142,,8.779498,0.247062,4.531062,0.009856,0.032572,-0.010505,0.889404,0.411865,0.468994,0.641841,-0.330532,-0.395557,-0.567736
28143,,8.752412,0.227058,4.542139,0.013931,0.030746,-0.013418,0.893555,0.418701,0.468750,0.641873,-0.330458,-0.395532,-0.567760
28144,,8.740327,0.288115,4.593155,0.015717,0.026518,-0.016745,0.893799,0.414307,0.464600,0.641871,-0.330397,-0.395525,-0.567802
28145,,8.717761,0.255591,4.582998,0.014403,0.018550,-0.009292,0.895996,0.416504,0.466553,0.641892,-0.330364,-0.395534,-0.567792
28146,,8.790602,0.280372,4.584823,0.014833,0.014931,-0.011648,0.893799,0.416504,0.464355,0.641883,-0.330347,-0.395557,-0.567795
28147,,8.823654,0.277921,4.537226,0.015249,0.020567,-0.006132,0.895752,0.418945,0.466553,0.641918,-0.330313,-0.395557,-0.567776
28148,,8.806908,0.275762,4.625842,0.014674,0.026982,-0.004357,0.891357,0.416504,0.468750,0.641953,-0.330276,-0.395529,-0.567777
28149,,8.813926,0.251319,4.587424,0.018240,0.027784,-0.003140,0.898193,0.416748,0.466553,0.642016,-0.330217,-0.395510,-0.567754
28150,,8.784444,0.264504,4.605905,0.021883,0.029575,-0.003688,0.893799,0.414307,0.466797,0.642068,-0.330152,-0.395490,-0.567746
28151,,8.769040,0.260248,4.550535,0.020736,0.028371,-0.003891,0.895752,0.418945,0.464355,0.642134,-0.330082,-0.395477,-0.567721
28152,,8.743770,0.260817,4.548501,0.026943,0.026966,-0.002844,0.889160,0.414307,0.464600,0.642194,-0.330009,-0.395482,-0.567693
28153,,8.742593,0.262546,4.550665,0.026388,0.024122,-0.008940,0.893555,0.418945,0.457764,0.642246,-0.329923,-0.395507,-0.567666
28154,,8.737452,0.277092,4.572786,0.021662,0.017340,-0.006240,0.891357,0.416504,0.464355,0.642272,-0.329884,-0.395536,-0.567639
28155,,8.786308,0.300936,4.570276,0.018015,0.015546,-0.005688,0.895752,0.421143,0.466309,0.642303,-0.329856,-0.395560,-0.567604
28156,,8.764018,0.267860,4.559758,0.021219,0.020955,-0.003876,0.898193,0.412109,0.468994,0.642338,-0.329816,-0.395569,-0.567582
28157,,8.784490,0.303564,4.573597,0.021217,0.020953,-0.003872,0.898193,0.414307,0.471191,0.642390,-0.329765,-0.395581,-0.567544
28158,,8.811762,0.293024,4.559332,0.022794,0.018533,-0.006015,0.898193,0.418945,0.470947,0.642416,-0.329726,-0.395602,-0.567523
28159,,8.806700,0.307176,4.581266,0.019992,0.018761,-0.002309,0.898193,0.412109,0.464600,0.642466,-0.329689,-0.395615,-0.567479
28160,,8.781649,0.307433,4.578791,0.014638,0.026956,-0.004321,0.898193,0.418945,0.466553,0.642500,-0.329654,-0.395585,-0.567481
28161,,8.783095,0.274897,4.573265,0.020908,0.021768,-0.000911,0.898193,0.416748,0.464355,0.642562,-0.329608,-0.395588,-0.567435
28162,,8.782051,0.275764,4.575218,0.013337,0.023777,-0.000993,0.891357,0.418701,0.468750,0.642599,-0.329591,-0.395562,-0.567422
28163,,8.722948,0.280041,4.621672,0.017716,0.021124,-0.006836,0.891357,0.416504,0.466553,0.642637,-0.329545,-0.395569,-0.567400
28164,,8.751892,0.290108,4.594690,0.015356,0.017736,-0.005490,0.898193,0.418945,0.468750,0.642649,-0.329531,-0.395572,-0.567392
28165,,8.802321,0.334466,4.579639,0.012931,0.018131,-0.006499,0.893799,0.414307,0.462402,0.642675,-0.329510,-0.395574,-0.567375
28166,,8.802990,0.356264,4.568693,0.008781,0.023741,-0.005951,0.891602,0.409668,0.464600,0.642690,-0.329498,-0.395542,-0.567386
28167,,8.807683,0.365211,4.537832,0.008714,0.027521,-0.008301,0.893799,0.416504,0.464355,0.642722,-0.329460,-0.395505,-0.567398
28168,,8.755175,0.323166,4.556690,0.002948,0.025301,-0.011713,0.889160,0.416504,0.464355,0.642716,-0.329451,-0.395462,-0.567440
28169,,8.724053,0.315442,4.587582,0.003785,0.027323,-0.008553,0.900391,0.418945,0.466553,0.642738,-0.329429,-0.395411,-0.567462
28170,,8.729718,0.270056,4.561896,0.004228,0.023702,-0.010907,0.891602,0.414307,0.466797,0.642731,-0.329422,-0.395376,-0.567499
28171,,8.745143,0.243114,4.614054,0.001712,0.018345,-0.006036,0.898193,0.418945,0.468750,0.642740,-0.329437,-0.395345,-0.567502
28172,,8.737504,0.290401,4.643333,0.004882,0.013506,-0.010322,0.895752,0.418945,0.468750,0.642715,-0.329459,-0.395340,-0.567521
28173,,8.791765,0.246798,4.625489,0.005026,0.010711,-0.009735,0.893555,0.418945,0.459961,0.642703,-0.329478,-0.395349,-0.567518
28174,,8.794439,0.289403,4.601119,0.001174,0.015494,-0.012133,0.893555,0.421143,0.462158,0.642672,-0.329500,-0.395335,-0.567550
28175,,8.791890,0.269619,4.615526,0.001640,0.022121,-0.008381,0.898193,0.416748,0.466553,0.642681,-0.329500,-0.395295,-0.567567
28176,,8.782136,0.296311,4.658347,0.005209,0.027689,-0.011264,0.893799,0.414307,0.462402,0.642684,-0.329477,-0.395252,-0.567608
28177,,8.743107,0.291052,4.598318,0.009070,0.027668,-0.012974,0.893799,0.414307,0.460205,0.642703,-0.329428,-0.395223,-0.567634
28178,,8.741941,0.292694,4.600429,0.009663,0.021254,-0.014743,0.893555,0.421143,0.470703,0.642695,-0.329400,-0.395221,-0.567661
28179,,8.737540,0.252893,4.627912,0.010573,0.024262,-0.013346,0.898193,0.418945,0.466553,0.642709,-0.329356,-0.395208,-0.567680
28180,,8.740794,0.241731,4.609512,0.008521,0.020051,-0.014952,0.891357,0.418701,0.464355,0.642688,-0.329338,-0.395201,-0.567719
28181,,8.765512,0.264962,4.602928,0.007304,0.017866,-0.013401,0.895996,0.414307,0.466797,0.642684,-0.329322,-0.395199,-0.567735
28182,,8.764754,0.266156,4.604303,0.006988,0.013929,-0.006345,0.893799,0.416504,0.468750,0.642676,-0.329342,-0.395195,-0.567734
28183,,8.813621,0.289612,4.601970,0.012819,0.017134,-0.004680,0.898193,0.414307,0.468994,0.642704,-0.329328,-0.395197,-0.567709
28184,,8.789874,0.235508,4.604108,0.020161,0.016938,-0.003392,0.893799,0.414307,0.468994,0.642731,-0.329305,-0.395213,-0.567681
28185,,8.756319,0.261314,4.641837,0.020536,0.022580,0.002127,0.898193,0.418945,0.466553,0.642802,-0.329264,-0.395208,-0.567628
28186,,8.729545,0.240771,4.652147,0.020848,0.026511,-0.004922,0.891357,0.416504,0.464355,0.642844,-0.329208,-0.395199,-0.567618
28187,,8.731629,0.283576,4.628854,0.021902,0.026725,-0.002937,0.893799,0.416504,0.470947,0.642912,-0.329141,-0.395193,-0.567585
28188,,8.702174,0.296974,4.646619,0.020161,0.021687,-0.007486,0.895996,0.416748,0.462158,0.642936,-0.329096,-0.395202,-0.567578
28189,,8.725244,0.299312,4.652782,0.015536,0.015905,-0.006588,0.900391,0.418945,0.468750,0.642961,-0.329072,-0.395218,-0.567552
28190,,8.748411,0.301576,4.658771,0.013194,0.017279,-0.009367,0.893555,0.421143,0.470703,0.642962,-0.329057,-0.395228,-0.567553
28191,,8.729642,0.309950,4.622600,0.010772,0.017670,-0.010384,0.891357,0.423340,0.466309,0.642972,-0.329036,-0.395231,-0.567551
28192,,8.773503,0.271548,4.658658,0.013182,0.012522,-0.005252,0.891357,0.418701,0.475098,0.642970,-0.329043,-0.395246,-0.567539
28193,,8.783228,0.267746,4.606548,0.009634,0.016468,-0.010599,0.891357,0.420898,0.468506,0.642975,-0.329029,-0.395251,-0.567539
28194,,8.808081,0.290764,4.599746,0.012053,0.016075,-0.009576,0.891357,0.416504,0.470947,0.642964,-0.329024,-0.395254,-0.567552
28195,,8.775486,0.262658,4.642676,0.010387,0.022266,-0.009783,0.893555,0.418701,0.466553,0.642984,-0.328992,-0.395240,-0.567557
28196,,8.765681,0.289755,4.685069,0.011670,0.020673,-0.008977,0.895996,0.416504,0.468750,0.642987,-0.328975,-0.395229,-0.567571
28197,,8.746826,0.297988,4.649109,0.010533,0.019472,-0.009193,0.889160,0.418701,0.468750,0.643003,-0.328952,-0.395225,-0.567569
28198,,8.698062,0.297327,4.641401,0.008184,0.016091,-0.007865,0.893799,0.414307,0.466797,0.642994,-0.328961,-0.395217,-0.567580
28199,,8.703427,0.306250,4.609595,0.004860,0.013473,-0.010282,0.893799,0.416504,0.464355,0.642986,-0.328972,-0.395217,-0.567582
28200,,8.720609,0.300245,4.648535,0.000766,0.015302,-0.007403,0.895996,0.416504,0.464355,0.642969,-0.329006,-0.395193,-0.567599
28201,,8.722669,0.267455,4.642308,0.002360,0.012882,-0.009539,0.895996,0.416504,0.468750,0.642958,-0.329028,-0.395187,-0.567603
28202,,8.780458,0.265201,4.599355,0.002360,0.012881,-0.009538,0.891602,0.412109,0.466797,0.642932,-0.329060,-0.395178,-0.567620
28203,,8.775484,0.279011,4.620617,0.002511,0.010091,-0.008954,0.900146,0.421143,0.472900,0.642917,-0.329090,-0.395180,-0.567618
28204,,8.776597,0.300814,4.608800,0.006221,0.012860,-0.011234,0.891357,0.416504,0.468750,0.642889,-0.329108,-0.395182,-0.567638
28205,,8.799869,0.303120,4.614643,0.007432,0.015039,-0.012775,0.893555,0.418701,0.466553,0.642881,-0.329101,-0.395189,-0.567646
28206,,8.799058,0.304536,4.616096,0.005913,0.018437,-0.012398,0.893799,0.416504,0.464355,0.642862,-0.329101,-0.395175,-0.567678
28207,,8.748635,0.283015,4.621173,-0.004001,0.017057,-0.011203,0.893555,0.421143,0.466309,0.642844,-0.329128,-0.395140,-0.567707
28208,,8.780696,0.258927,4.586735,0.000757,0.015296,-0.007394,0.895752,0.418945,0.464355,0.642825,-0.329161,-0.395117,-0.567724
28209,,8.753127,0.292720,4.591068,0.000097,0.019974,-0.018178,0.898193,0.418945,0.468750,0.642800,-0.329153,-0.395096,-0.567773
28210,,8.771709,0.308008,4.617622,0.002356,0.017624,-0.013631,0.891357,0.421143,0.464111,0.642770,-0.329163,-0.395080,-0.567811
28211,,8.775348,0.296132,4.598860,0.001885,0.016493,-0.007169,0.898193,0.414307,0.468994,0.642772,-0.329181,-0.395057,-0.567815
28212,,8.750612,0.296042,4.595648,0.003328,0.016863,-0.009886,0.886719,0.420898,0.466309,0.642754,-0.329197,-0.395039,-0.567839
28213,,8.724220,0.275306,4.605212,0.003248,0.015883,-0.008124,0.893555,0.418701,0.466553,0.642754,-0.329211,-0.395023,-0.567842
28214,,8.745736,0.256351,4.624087,0.004300,0.016102,-0.006141,0.891357,0.420898,0.466309,0.642745,-0.329233,-0.395004,-0.567852
28215,,8.722787,0.277012,4.607823,0.003714,0.012263,-0.010478,0.893799,0.414307,0.466797,0.642732,-0.329250,-0.395005,-0.567856
28216,,8.776229,0.287758,4.585184,-0.001203,0.012061,-0.010765,0.895752,0.423340,0.470703,0.642694,-0.329293,-0.394991,-0.567884
28217,,8.743976,0.259098,4.627262,-0.002180,0.008072,-0.010404,0.898193,0.412109,0.466797,0.642664,-0.329341,-0.394989,-0.567892
28218,,8.721243,0.279557,4.610591,0.002188,0.010913,-0.005998,0.893555,0.418701,0.466553,0.642641,-0.329388,-0.394979,-0.567898
28219,,8.768594,0.282405,4.620913,0.001527,0.010841,-0.012676,0.898193,0.418945,0.462158,0.642616,-0.329412,-0.394982,-0.567911
28220,,8.772591,0.270533,4.601550,-0.001050,0.009270,-0.010181,0.891602,0.414307,0.466797,0.642576,-0.329461,-0.394979,-0.567928
28221,,8.778166,0.279351,4.569556,0.003553,0.015049,-0.011052,0.893555,0.418701,0.464355,0.642567,-0.329470,-0.394972,-0.567939
28222,,8.769575,0.252110,4.616804,0.006128,0.016618,-0.013544,0.898193,0.416748,0.464355,0.642543,-0.329471,-0.394969,-0.567967
28223,,8.749514,0.239722,4.592979,0.006676,0.009233,-0.013559,0.891602,0.414307,0.473145,0.642520,-0.329481,-0.394994,-0.567970
28224,,8.792364,0.256114,4.623520,0.008937,0.011632,-0.013113,0.886963,0.418701,0.466553,0.642490,-0.329490,-0.395011,-0.567986
28225,,8.773946,0.264673,4.586913,0.007804,0.015175,-0.017432,0.895996,0.416504,0.473145,0.642470,-0.329472,-0.395026,-0.568009
28226,,8.773198,0.265984,4.588269,0.004284,0.016097,-0.006127,0.894043,0.407471,0.467041,0.642459,-0.329497,-0.395003,-0.568023
28227,,8.767905,0.279922,4.609913,0.009592,0.016448,-0.010528,0.900391,0.418945,0.477539,0.642464,-0.329483,-0.395008,-0.568022
28228,,8.791085,0.281995,4.615998,0.009119,0.015322,-0.004073,0.893799,0.414307,0.464600,0.642466,-0.329502,-0.394995,-0.568018
28229,,8.784144,0.274976,4.650425,0.010248,0.016521,-0.003848,0.893799,0.416504,0.466553,0.642491,-0.329499,-0.394990,-0.567995
28230,,8.778920,0.288584,4.671911,0.010326,0.012756,-0.001509,0.898193,0.416748,0.468750,0.642502,-0.329521,-0.394992,-0.567969
28231,,8.771349,0.291050,4.581899,0.010641,0.011924,-0.004444,0.898193,0.416748,0.464355,0.642517,-0.329529,-0.395004,-0.567939
28232,,8.770819,0.291523,4.582884,0.002835,0.010982,0.000688,0.895996,0.416504,0.468750,0.642517,-0.329585,-0.394987,-0.567919
28233,,8.791347,0.326795,4.595971,0.007487,0.011255,-0.010387,0.893799,0.416504,0.466553,0.642509,-0.329593,-0.395002,-0.567913
28234,,8.790584,0.328223,4.597330,0.000072,0.019940,-0.018142,0.893555,0.418701,0.464355,0.642467,-0.329596,-0.394977,-0.567976
28235,,8.770221,0.315546,4.574170,-0.003060,0.021011,-0.011536,0.895996,0.416504,0.464355,0.642457,-0.329608,-0.394932,-0.568011
28236,,8.745352,0.315656,4.571151,-0.003557,0.018146,-0.017629,0.893799,0.416504,0.468750,0.642410,-0.329626,-0.394906,-0.568072
28237,,8.690384,0.307343,4.596289,0.000305,0.018127,-0.019311,0.895752,0.418945,0.464355,0.642378,-0.329620,-0.394893,-0.568120
28238,,8.716396,0.276340,4.595103,-0.004451,0.015134,-0.019027,0.893799,0.414307,0.466797,0.642317,-0.329648,-0.394874,-0.568186
28239,,8.735153,0.291720,4.621112,-0.006311,0.008137,-0.020073,0.891357,0.416504,0.466553,0.642253,-0.329690,-0.394876,-0.568233
28240,,8.766196,0.247508,4.598907,-0.005418,0.006406,-0.014576,0.893799,0.414307,0.470947,0.642186,-0.329756,-0.394873,-0.568272
28241,,8.786825,0.283063,4.611709,-0.002189,0.008054,-0.010388,0.895752,0.418945,0.468750,0.642156,-0.329804,-0.394871,-0.568280
28242,,8.789244,0.250457,4.605233,-0.002196,0.012792,-0.014478,0.893799,0.416504,0.464355,0.642105,-0.329843,-0.394855,-0.568326
28243,,8.812549,0.252456,4.611125,-0.002592,0.012647,-0.009786,0.898193,0.418945,0.468750,0.642084,-0.329881,-0.394836,-0.568341
28244,,8.810250,0.232658,4.625134,-0.000019,0.014216,-0.012269,0.895752,0.423340,0.470703,0.642049,-0.329910,-0.394821,-0.568374
28245,,8.766254,0.218651,4.596758,0.001918,0.017448,-0.008883,0.898193,0.416748,0.464355,0.642048,-0.329922,-0.394798,-0.568384
28246,,8.810330,0.255515,4.615194,0.006099,0.016601,-0.013497,0.891357,0.418701,0.466553,0.642022,-0.329923,-0.394795,-0.568415
28247,,8.772643,0.249862,4.553668,0.007629,0.013207,-0.013871,0.891357,0.420898,0.466309,0.642008,-0.329918,-0.394810,-0.568423
28248,,8.786727,0.278129,4.599968,0.011018,0.012072,-0.009105,0.891357,0.423340,0.470703,0.641994,-0.329924,-0.394828,-0.568423
28249,,8.742973,0.264544,4.571122,0.010209,0.010038,-0.012263,0.893799,0.416504,0.464355,0.641982,-0.329923,-0.394858,-0.568416
28250,,8.783974,0.260294,4.614732,0.012143,0.013271,-0.008876,0.891357,0.418701,0.475098,0.641972,-0.329924,-0.394874,-0.568416
28251,,8.746315,0.254230,4.553217,0.010291,0.017495,-0.005565,0.893799,0.416504,0.468750,0.641995,-0.329915,-0.394869,-0.568399
28252,,8.710639,0.259310,4.603244,0.013912,0.019288,-0.006063,0.898193,0.412109,0.466797,0.642005,-0.329901,-0.394861,-0.568401
28253,,8.738337,0.248618,4.589384,0.011656,0.016885,-0.006513,0.898193,0.418945,0.462158,0.642025,-0.329887,-0.394863,-0.568384
28254,,8.742247,0.236738,4.570516,0.012868,0.014326,-0.003953,0.893799,0.412109,0.468994,0.642038,-0.329891,-0.394874,-0.568361
28255,,8.783226,0.232071,4.614174,0.015691,0.009350,-0.003523,0.898193,0.418945,0.466553,0.642059,-0.329892,-0.394907,-0.568314
28256,,8.805321,0.288646,4.614342,0.018263,0.010917,-0.006001,0.895752,0.418945,0.466553,0.642064,-0.329886,-0.394942,-0.568286
28257,,8.804712,0.290181,4.615407,0.017126,0.014448,-0.010313,0.891357,0.416504,0.475342,0.642078,-0.329854,-0.394974,-0.568266
28258,,8.804064,0.291270,4.616573,0.011338,0.012981,0.000513,0.893555,0.420898,0.475098,0.642091,-0.329880,-0.394970,-0.568241
28259,,8.758570,0.256379,4.600831,0.015435,0.015888,-0.006425,0.898193,0.416504,0.470947,0.642116,-0.329857,-0.394986,-0.568214
28260,,8.786407,0.245793,4.586788,0.011891,0.015068,-0.007681,0.893555,0.418701,0.468750,0.642109,-0.329859,-0.394988,-0.568220
28261,,8.758798,0.279668,4.590544,0.012210,0.014233,-0.010612,0.891357,0.418701,0.464355,0.642114,-0.329843,-0.395007,-0.568211
28262,,8.786757,0.269432,4.576265,0.010280,0.010995,-0.013997,0.891357,0.418701,0.466553,0.642083,-0.329846,-0.395034,-0.568225
28263,,8.776945,0.296855,4.617440,0.005533,0.008001,-0.013728,0.895752,0.421143,0.466309,0.642055,-0.329863,-0.395059,-0.568229
28264,,8.757156,0.284365,4.593387,0.008742,0.014385,-0.013621,0.891357,0.416504,0.466553,0.642029,-0.329861,-0.395071,-0.568251
28265,,8.775625,0.299728,4.619762,0.009222,0.017256,-0.007528,0.895752,0.418945,0.466553,0.642044,-0.329852,-0.395067,-0.568243
28266,,8.736369,0.272883,4.571197,0.007126,0.016800,-0.011490,0.891113,0.423096,0.472900,0.642026,-0.329854,-0.395062,-0.568265
28267,,8.777097,0.268360,4.615279,0.005523,0.014488,-0.005277,0.898193,0.414307,0.466797,0.642036,-0.329869,-0.395052,-0.568252
28268,,8.727035,0.246234,4.619556,0.007058,0.011097,-0.005648,0.893799,0.412109,0.464600,0.642021,-0.329900,-0.395053,-0.568250
28269,,8.783780,0.223529,4.589708,0.007548,0.007478,-0.008001,0.893555,0.423340,0.466309,0.642012,-0.329924,-0.395076,-0.568231
28270,,8.737188,0.242921,4.567930,0.007057,0.011096,-0.005646,0.891357,0.418701,0.475098,0.642001,-0.329952,-0.395081,-0.568223
28271,,8.755806,0.258250,4.594000,0.012522,0.013390,-0.013525,0.893799,0.416504,0.470947,0.641996,-0.329932,-0.395109,-0.568221
28272,,8.733018,0.279328,4.577207,0.013580,0.008890,-0.007456,0.891357,0.418701,0.468750,0.641979,-0.329947,-0.395133,-0.568214
28273,,8.753445,0.315628,4.590047,0.017765,0.008037,-0.012053,0.895752,0.418945,0.462158,0.641977,-0.329928,-0.395191,-0.568188
28274,,8.757688,0.304259,4.570669,0.009869,0.010849,-0.009293,0.893555,0.423340,0.466309,0.641959,-0.329941,-0.395210,-0.568187
28275,,8.777843,0.265357,4.602069,0.011406,0.007459,-0.009663,0.895996,0.416504,0.473145,0.641952,-0.329949,-0.395247,-0.568165
28276,,8.785555,0.295074,4.556632,0.005619,0.004235,-0.011383,0.893799,0.416504,0.468750,0.641904,-0.329993,-0.395275,-0.568174
28277,,8.789955,0.283426,4.537004,0.006573,0.008217,-0.011730,0.898193,0.418945,0.464355,0.641884,-0.330010,-0.395299,-0.568170
28278,,8.824574,0.271576,4.613603,0.005280,0.009796,-0.012535,0.898193,0.416748,0.466553,0.641847,-0.330036,-0.395313,-0.568187
28279,,8.806503,0.279482,4.576650,0.008572,0.012427,-0.010093,0.900391,0.416748,0.466553,0.641844,-0.330037,-0.395327,-0.568180
28280,,8.804235,0.260272,4.590656,0.013556,0.013612,-0.011528,0.893555,0.418701,0.470947,0.641832,-0.330028,-0.395351,-0.568183
28281,,8.781249,0.281155,4.574214,0.009199,0.017245,-0.007509,0.893555,0.418945,0.459961,0.641846,-0.330019,-0.395346,-0.568174
28282,,8.802845,0.262819,4.593177,0.012277,0.010466,-0.008247,0.893799,0.416504,0.464355,0.641834,-0.330028,-0.395372,-0.568165
28283,,8.775206,0.296481,4.596712,0.011612,0.016865,-0.006470,0.893555,0.418701,0.473145,0.641855,-0.330015,-0.395374,-0.568148
28284,,8.772808,0.276977,4.610977,0.011858,0.015055,-0.007644,0.893799,0.416504,0.466553,0.641850,-0.330015,-0.395378,-0.568150
28285,,8.767425,0.291101,4.632253,0.008490,0.011451,-0.008332,0.895996,0.416504,0.470947,0.641850,-0.330024,-0.395392,-0.568136
28286,,8.798815,0.321658,4.592158,0.005997,0.010858,-0.007615,0.893555,0.418701,0.466553,0.641828,-0.330056,-0.395393,-0.568141
28287,,8.748794,0.299638,4.596347,0.003410,0.014015,-0.009227,0.893555,0.418701,0.466553,0.641822,-0.330071,-0.395386,-0.568144
28288,,8.779982,0.330139,4.556661,0.000823,0.017172,-0.010839,0.893799,0.414307,0.466797,0.641796,-0.330093,-0.395360,-0.568179
28289,,8.731331,0.253963,4.566720,0.000197,0.012351,-0.013420,0.895752,0.421143,0.464355,0.641769,-0.330116,-0.395356,-0.568199
28290,,8.754556,0.256332,4.572827,0.000025,0.015130,-0.013995,0.889404,0.411865,0.466797,0.641730,-0.330140,-0.395340,-0.568240
28291,,8.758668,0.244806,4.553879,0.003013,0.012103,-0.017060,0.891602,0.414307,0.466797,0.641697,-0.330147,-0.395351,-0.568266
28292,,8.777290,0.260486,4.579776,0.007937,0.007599,-0.012655,0.895996,0.416748,0.462158,0.641660,-0.330171,-0.395377,-0.568275
28293,,8.776896,0.261888,4.580450,0.006566,0.008206,-0.011709,0.897949,0.421143,0.464355,0.641640,-0.330188,-0.395401,-0.568270
28294,,8.781210,0.250281,4.561144,0.006392,0.010985,-0.012284,0.893555,0.421143,0.464111,0.641611,-0.330205,-0.395418,-0.568283
28295,,8.794840,0.278656,4.607555,0.005719,0.017383,-0.010507,0.898193,0.416748,0.464355,0.641611,-0.330201,-0.395408,-0.568291
28296,,8.774981,0.265776,4.583895,0.010797,0.014820,-0.009605,0.893555,0.421143,0.468506,0.641603,-0.330199,-0.395419,-0.568294
28297,,8.794932,0.301779,4.597438,0.006761,0.017612,-0.008521,0.895752,0.421143,0.464355,0.641611,-0.330195,-0.395409,-0.568295
28298,,8.765322,0.314483,4.614339,0.003844,0.021606,-0.007206,0.891357,0.416504,0.470947,0.641608,-0.330201,-0.395372,-0.568319
28299,,8.767708,0.281669,4.608564,0.004615,0.011460,-0.006654,0.893555,0.421143,0.462158,0.641606,-0.330226,-0.395372,-0.568308
28300,,8.772019,0.269508,4.589342,0.008323,0.009507,-0.004807,0.886963,0.414063,0.468750,0.641594,-0.330257,-0.395382,-0.568296
28301,,8.776465,0.257527,4.569865,0.007781,0.005655,-0.009141,0.902588,0.416748,0.466553,0.641579,-0.330283,-0.395413,-0.568276
28302,,8.796778,0.293465,4.582688,0.007355,0.010243,-0.008540,0.893799,0.414307,0.464600,0.641557,-0.330310,-0.395422,-0.568279
28303,,8.807580,0.289421,4.530357,0.010096,0.009026,-0.010426,0.897949,0.423340,0.466309,0.641548,-0.330316,-0.395452,-0.568265
28304,,8.830790,0.291848,4.536524,0.005458,0.019184,-0.009320,0.889160,0.416504,0.466553,0.641539,-0.330320,-0.395432,-0.568287
28305,,8.802850,0.325761,4.540362,0.009975,0.017486,-0.016825,0.893555,0.421143,0.464111,0.641529,-0.330290,-0.395444,-0.568307
28306,,8.757469,0.366278,4.506229,0.004488,0.019917,-0.013050,0.893555,0.418701,0.470947,0.641509,-0.330287,-0.395424,-0.568345
28307,,8.772404,0.340554,4.558650,0.007328,0.014954,-0.012608,0.893799,0.416504,0.468750,0.641501,-0.330281,-0.395431,-0.568353
28308,,8.747898,0.340738,4.554801,0.006383,0.010974,-0.012264,0.898193,0.414307,0.471191,0.641465,-0.330302,-0.395439,-0.568375
28309,,8.793420,0.323832,4.578696,0.003716,0.013157,-0.012128,0.895752,0.421143,0.466309,0.641450,-0.330314,-0.395440,-0.568386
28310,,8.786221,0.317402,4.613016,0.001125,0.016307,-0.013741,0.893799,0.414307,0.466797,0.641413,-0.330333,-0.395420,-0.568429
28311,,8.793546,0.272069,4.587087,0.002419,0.014731,-0.012932,0.898193,0.416748,0.466553,0.641396,-0.330343,-0.395414,-0.568448
28312,,8.760753,0.243796,4.629527,0.003359,0.018709,-0.013271,0.900391,0.421143,0.466553,0.641372,-0.330349,-0.395394,-0.568486
28313,,8.761597,0.265986,4.618004,0.000662,0.013418,-0.019818,0.900391,0.418945,0.464355,0.641330,-0.330354,-0.395398,-0.568527
28314,,8.784761,0.268721,4.624237,0.000000,0.015101,-0.013967,0.889160,0.418701,0.464355,0.641291,-0.330377,-0.395384,-0.568567
28315,,8.766677,0.276745,4.587496,0.003149,0.014010,-0.020522,0.895752,0.418945,0.462158,0.641252,-0.330372,-0.395395,-0.568607
28316,,8.789746,0.279848,4.593898,0.006171,0.018457,-0.016894,0.891357,0.416504,0.468750,0.641223,-0.330359,-0.395393,-0.568648
28317,,8.817588,0.269765,4.580437,0.005838,0.019298,-0.013967,0.898193,0.414307,0.466797,0.641218,-0.330342,-0.395384,-0.568670
28318,,8.768858,0.268796,4.572275,0.009189,0.022903,-0.013262,0.895996,0.416748,0.462158,0.641210,-0.330318,-0.395365,-0.568705
28319,,8.786778,0.284506,4.599286,0.005580,0.021105,-0.012787,0.891357,0.420898,0.475098,0.641211,-0.330300,-0.395347,-0.568727
28320,,8.765150,0.251047,4.589033,0.010226,0.023136,-0.011272,0.895996,0.414307,0.466797,0.641210,-0.330275,-0.395327,-0.568757
28321,,8.778170,0.279543,4.636097,0.008955,0.019999,-0.008008,0.898193,0.416748,0.468750,0.641228,-0.330258,-0.395314,-0.568755
28322,,8.763238,0.253726,4.592535,0.012031,0.017941,-0.012809,0.898193,0.418945,0.464355,0.641218,-0.330240,-0.395320,-0.568774
28323,,8.757477,0.267949,4.614153,0.011213,0.017694,-0.003465,0.895752,0.421143,0.464355,0.641248,-0.330231,-0.395314,-0.568749
28324,,8.777137,0.229040,4.646789,0.016085,0.022623,-0.007192,0.889160,0.416504,0.464355,0.641271,-0.330195,-0.395311,-0.568746
28325,,8.758761,0.236726,4.610709,0.014710,0.023229,-0.006249,0.895996,0.416748,0.459961,0.641310,-0.330154,-0.395301,-0.568733
28326,,8.773297,0.285969,4.644921,0.015040,0.022383,-0.009169,0.891357,0.418701,0.466553,0.641328,-0.330116,-0.395301,-0.568735
28327,,8.783773,0.282055,4.593704,0.014962,0.021416,-0.007418,0.895996,0.416504,0.466553,0.641360,-0.330077,-0.395300,-0.568722
28328,,8.776197,0.275536,4.628559,0.014550,0.021294,-0.002745,0.893555,0.421143,0.466309,0.641389,-0.330060,-0.395286,-0.568709
28329,,8.778463,0.317989,4.604478,0.013919,0.021176,-0.009395,0.893555,0.418701,0.468750,0.641414,-0.330021,-0.395286,-0.568703
28330,,8.765147,0.312671,4.548185,0.013582,0.022019,-0.006470,0.895752,0.421143,0.464355,0.641430,-0.329997,-0.395273,-0.568708
28331,,8.757515,0.306216,4.583112,0.011168,0.022388,-0.007513,0.898193,0.416748,0.464355,0.641458,-0.329967,-0.395258,-0.568704
28332,,8.737717,0.293053,4.559665,0.011531,0.016839,-0.006366,0.893799,0.414307,0.468994,0.641465,-0.329963,-0.395260,-0.568697
28333,,8.750819,0.321643,4.606296,0.011942,0.016957,-0.011033,0.893555,0.421143,0.462158,0.641474,-0.329940,-0.395271,-0.568694
28334,,8.775541,0.270200,4.618710,0.009528,0.017326,-0.012077,0.891602,0.414307,0.466797,0.641461,-0.329930,-0.395272,-0.568713
28335,,8.782953,0.299869,4.574250,0.008153,0.017932,-0.011138,0.900391,0.418945,0.466553,0.641465,-0.329916,-0.395269,-0.568719
28336,,8.751571,0.292444,4.603836,0.005892,0.020228,-0.015676,0.891357,0.416504,0.468750,0.641441,-0.329904,-0.395256,-0.568761
28337,,8.779453,0.282251,4.590596,0.006852,0.019502,-0.011943,0.897949,0.421143,0.464355,0.641444,-0.329887,-0.395245,-0.568775
28338,,8.804030,0.305371,4.584372,0.001874,0.018312,-0.010543,0.886719,0.425293,0.468262,0.641424,-0.329903,-0.395219,-0.568807
28339,,8.781006,0.250480,4.586870,-0.000176,0.020611,-0.003763,0.893555,0.421143,0.459961,0.641440,-0.329922,-0.395171,-0.568811
28340,,8.756108,0.249834,4.583757,0.006065,0.024927,-0.008410,0.895752,0.421143,0.470703,0.641446,-0.329907,-0.395135,-0.568838
28341,,8.777076,0.306459,4.585082,0.003913,0.023485,-0.010631,0.891357,0.423340,0.466309,0.641455,-0.329891,-0.395101,-0.568860
28342,,8.779411,0.273702,4.579950,0.001270,0.020963,-0.006439,0.893555,0.421143,0.468506,0.641448,-0.329909,-0.395057,-0.568888
28343,,8.773407,0.287778,4.601798,0.006921,0.020458,-0.013672,0.893555,0.418701,0.466553,0.641448,-0.329887,-0.395046,-0.568909
28344,,8.774264,0.309916,4.590228,0.006439,0.011902,-0.013943,0.893799,0.416504,0.464355,0.641412,-0.329899,-0.395059,-0.568934
28345,,8.797573,0.312583,4.596264,0.002761,0.009142,-0.011739,0.891357,0.418701,0.466553,0.641388,-0.329926,-0.395069,-0.568939
28346,,8.771501,0.291698,4.605183,0.002050,0.015532,-0.009959,0.891357,0.416504,0.466553,0.641366,-0.329949,-0.395052,-0.568962
28347,,8.774063,0.259131,4.599658,-0.000472,0.019633,-0.013322,0.895752,0.418701,0.470947,0.641352,-0.329953,-0.395023,-0.568995
28348,,8.779640,0.267908,4.568712,0.004825,0.027450,-0.010945,0.889160,0.414063,0.468750,0.641353,-0.329934,-0.394974,-0.569039
28349,,8.735736,0.253479,4.540826,0.004898,0.028410,-0.012686,0.898193,0.418945,0.464355,0.641368,-0.329897,-0.394930,-0.569074
28350,,8.746631,0.261503,4.601168,0.006569,0.021297,-0.010733,0.889160,0.418701,0.464355,0.641362,-0.329889,-0.394908,-0.569101
28351,,8.774614,0.250930,4.587968,0.010124,0.017436,-0.005382,0.902588,0.418945,0.466553,0.641384,-0.329881,-0.394902,-0.569084
28352,,8.763747,0.277913,4.629343,0.008164,0.013223,-0.007037,0.891357,0.418701,0.466553,0.641377,-0.329897,-0.394907,-0.569080
28353,,8.769819,0.286536,4.597509,0.011685,0.014057,-0.005744,0.900391,0.418945,0.468750,0.641394,-0.329893,-0.394917,-0.569056
28354,,8.767556,0.266925,4.611604,0.007051,0.012019,-0.007275,0.891357,0.418701,0.468750,0.641379,-0.329916,-0.394921,-0.569056
28355,,8.792330,0.289905,4.605053,0.009085,0.017193,-0.007361,0.902588,0.418945,0.468750,0.641394,-0.329908,-0.394916,-0.569048
28356,,8.745495,0.308723,4.583266,0.006331,0.018406,-0.005492,0.893799,0.416504,0.468750,0.641395,-0.329921,-0.394893,-0.569056
28357,,8.771798,0.277411,4.583186,0.008705,0.022732,-0.008495,0.891357,0.420898,0.466309,0.641417,-0.329896,-0.394871,-0.569060
28358,,8.764021,0.270958,4.618084,0.010003,0.021162,-0.007682,0.889160,0.418701,0.464355,0.641424,-0.329883,-0.394854,-0.569072
28359,,8.742679,0.237078,4.607664,0.006480,0.020325,-0.008974,0.893799,0.414307,0.466797,0.641436,-0.329871,-0.394834,-0.569079
28360,,8.768929,0.280707,4.588473,0.005558,0.016353,-0.008645,0.893799,0.416504,0.470947,0.641425,-0.329884,-0.394823,-0.569092
28361,,8.768127,0.281735,4.589942,0.006667,0.017554,-0.008401,0.893799,0.414307,0.466797,0.641434,-0.329880,-0.394812,-0.569092
28362,,8.765656,0.262180,4.604432,0.009075,0.017187,-0.007346,0.886963,0.416504,0.468750,0.641432,-0.329884,-0.394802,-0.569098
28363,,8.791885,0.305773,4.585289,0.007508,0.020562,-0.006980,0.900391,0.416748,0.468750,0.641452,-0.329873,-0.394782,-0.569096
28364,,8.760377,0.297843,4.614759,0.010183,0.018387,-0.007099,0.891357,0.416504,0.466553,0.641455,-0.329869,-0.394771,-0.569102
28365,,8.728912,0.290043,4.644110,0.009149,0.018144,-0.009083,0.893311,0.425537,0.464111,0.641467,-0.329855,-0.394767,-0.569100
28366,,8.757073,0.279568,4.630734,0.005819,0.014538,-0.009811,0.886963,0.416504,0.464355,0.641449,-0.329868,-0.394765,-0.569114
28367,,8.771697,0.241641,4.572191,0.004327,0.018873,-0.011188,0.895752,0.418701,0.470947,0.641448,-0.329863,-0.394748,-0.569129
28368,,8.741888,0.254234,4.588550,0.002795,0.017559,-0.006769,0.888916,0.423340,0.466309,0.641439,-0.329885,-0.394720,-0.569147
28369,,8.766530,0.277228,4.582287,0.004593,0.017062,-0.012359,0.895996,0.412109,0.468994,0.641432,-0.329882,-0.394711,-0.569163
28370,,8.813349,0.281001,4.594211,0.001683,0.016356,-0.007010,0.891357,0.418701,0.464355,0.641418,-0.329911,-0.394684,-0.569180
28371,,8.754577,0.305309,4.625265,0.009217,0.019100,-0.010813,0.893799,0.412109,0.464600,0.641426,-0.329891,-0.394680,-0.569185
28372,,8.787883,0.281855,4.592018,0.010362,0.015614,-0.006514,0.893799,0.416504,0.466553,0.641430,-0.329893,-0.394682,-0.569178
28373,,8.732796,0.272435,4.615714,0.008067,0.012250,-0.005259,0.891357,0.416504,0.466553,0.641440,-0.329907,-0.394687,-0.569156
28374,,8.761163,0.261648,4.602075,0.009175,0.013451,-0.005014,0.893799,0.416504,0.464355,0.641439,-0.329924,-0.394689,-0.569146
28375,,8.767383,0.270270,4.570194,0.008489,0.012358,-0.009916,0.898193,0.418945,0.464355,0.641436,-0.329926,-0.394702,-0.569138
28376,,8.778599,0.278105,4.629452,0.005579,0.011653,-0.004570,0.891357,0.416504,0.464355,0.641430,-0.329959,-0.394702,-0.569127
28377,,8.804995,0.321404,4.610019,0.003892,0.018753,-0.006515,0.893799,0.416504,0.464355,0.641442,-0.329965,-0.394676,-0.569128
28378,,8.798876,0.335478,4.631703,0.001984,0.020183,-0.013970,0.886963,0.416504,0.466553,0.641419,-0.329966,-0.394653,-0.569169
28379,,8.784361,0.309016,4.588506,0.003232,0.026095,-0.006469,0.891602,0.414307,0.470947,0.641444,-0.329953,-0.394602,-0.569183
28380,,8.730446,0.319974,4.600036,0.001286,0.021881,-0.008132,0.893555,0.418701,0.466553,0.641437,-0.329967,-0.394556,-0.569216
28381,,8.727853,0.300346,4.614742,0.005613,0.017293,-0.010353,0.895752,0.421143,0.466309,0.641437,-0.329964,-0.394546,-0.569224
28382,,8.706822,0.266582,4.603899,0.004853,0.015240,-0.013513,0.898193,0.416504,0.473145,0.641409,-0.329971,-0.394545,-0.569252
28383,,8.730045,0.269197,4.610191,0.002677,0.008153,-0.009955,0.893555,0.421143,0.462158,0.641387,-0.330004,-0.394556,-0.569250
28384,,8.780743,0.239507,4.614580,0.006269,0.009950,-0.010391,0.891357,0.418701,0.468750,0.641359,-0.330029,-0.394569,-0.569257
28385,,8.810726,0.249900,4.588127,0.007140,0.018599,-0.014758,0.895752,0.418945,0.464355,0.641352,-0.330009,-0.394567,-0.569279
28386,,8.779199,0.242380,4.617368,0.004576,0.017045,-0.012332,0.889160,0.416504,0.470947,0.641330,-0.330015,-0.394557,-0.569307
28387,,8.829254,0.287456,4.603482,0.006284,0.018384,-0.005440,0.895996,0.416504,0.468750,0.641348,-0.330016,-0.394537,-0.569299
28388,,8.802878,0.266382,4.612914,0.009951,0.021138,-0.007614,0.889160,0.416504,0.462158,0.641354,-0.330006,-0.394517,-0.569313
28389,,8.772814,0.279059,4.629482,0.009677,0.022945,-0.006437,0.897949,0.421143,0.468506,0.641384,-0.329981,-0.394494,-0.569310
28390,,8.753235,0.265648,4.606116,0.009948,0.021135,-0.007609,0.889160,0.420898,0.470703,0.641393,-0.329967,-0.394480,-0.569317
28391,,8.746996,0.279763,4.627886,0.013382,0.021017,-0.004560,0.891602,0.409668,0.471191,0.641431,-0.329939,-0.394471,-0.569297
28392,,8.727538,0.266643,4.604288,0.017869,0.018345,-0.010255,0.893799,0.416504,0.466553,0.641436,-0.329907,-0.394485,-0.569300
28393,,8.696036,0.258895,4.633368,0.008879,0.015251,-0.003805,0.891357,0.416504,0.466553,0.641457,-0.329912,-0.394480,-0.569277
28394,,8.756732,0.277899,4.579387,0.014198,0.015588,-0.008078,0.889160,0.416504,0.468750,0.641461,-0.329900,-0.394495,-0.569270
28395,,8.718355,0.262607,4.641317,0.012740,0.015238,-0.005409,0.895752,0.418945,0.466553,0.641483,-0.329890,-0.394504,-0.569244
28396,,8.724534,0.271133,4.609716,0.012464,0.017045,-0.004232,0.893555,0.421143,0.468506,0.641496,-0.329887,-0.394501,-0.569233
28397,,8.764295,0.267559,4.654918,0.013645,0.019202,-0.005722,0.893799,0.416504,0.468750,0.641527,-0.329862,-0.394501,-0.569213
28398,,8.770353,0.276121,4.623567,0.011159,0.018606,-0.005041,0.891357,0.418701,0.473145,0.641538,-0.329858,-0.394490,-0.569210
28399,,8.793277,0.278618,4.630469,0.014944,0.017637,-0.004903,0.891602,0.414307,0.466797,0.641570,-0.329835,-0.394497,-0.569182
28400,,8.821502,0.268125,4.617417,0.012536,0.017997,-0.005963,0.893799,0.412109,0.468994,0.641579,-0.329828,-0.394491,-0.569181
28401,,8.798577,0.288196,4.600538,0.013483,0.017287,-0.002233,0.898193,0.416748,0.468750,0.641616,-0.329815,-0.394491,-0.569147
28402,,8.766931,0.279802,4.629830,0.012577,0.021757,0.003032,0.893799,0.416504,0.468750,0.641660,-0.329815,-0.394460,-0.569119
28403,,8.749187,0.286493,4.593258,0.014663,0.019441,-0.003719,0.893799,0.416504,0.470947,0.641699,-0.329790,-0.394458,-0.569091
28404,,8.743029,0.300699,4.614731,0.016317,0.017024,-0.005816,0.893555,0.418701,0.464355,0.641713,-0.329774,-0.394466,-0.569079
28405,,8.764331,0.282841,4.634566,0.012806,0.016182,-0.007127,0.902588,0.418945,0.464355,0.641732,-0.329757,-0.394475,-0.569060
28406,,8.737788,0.336600,4.624492,0.012174,0.018844,-0.003037,0.886719,0.420898,0.461914,0.641756,-0.329750,-0.394470,-0.569041
28407,,8.757216,0.297718,4.657765,0.008188,0.022573,-0.003740,0.893799,0.416504,0.466553,0.641790,-0.329737,-0.394439,-0.569032
28408,,8.744671,0.291436,4.601540,0.009368,0.024728,-0.005227,0.891357,0.416504,0.470947,0.641813,-0.329718,-0.394409,-0.569038
28409,,8.743580,0.292463,4.603547,0.013428,0.021950,-0.006257,0.891357,0.416504,0.468750,0.641847,-0.329685,-0.394400,-0.569025
28410,,8.766280,0.294950,4.610902,0.008260,0.023523,-0.005472,0.898193,0.416748,0.462158,0.641861,-0.329676,-0.394364,-0.569039
28411,,8.746861,0.281281,4.587431,0.008736,0.018951,-0.006079,0.893555,0.418701,0.466553,0.641882,-0.329667,-0.394350,-0.569030
28412,,8.797202,0.251498,4.592941,0.006530,0.016547,-0.006579,0.893799,0.416504,0.464355,0.641882,-0.329677,-0.394341,-0.569030
28413,,8.768910,0.284567,4.595994,0.005027,0.020870,-0.007958,0.900391,0.416748,0.468750,0.641896,-0.329671,-0.394314,-0.569037
28414,,8.762608,0.298519,4.617647,0.007351,0.019556,-0.005150,0.895752,0.421143,0.468506,0.641905,-0.329675,-0.394293,-0.569038
28415,,8.763298,0.319960,4.606433,0.007228,0.023270,-0.007451,0.891602,0.414307,0.468750,0.641929,-0.329656,-0.394264,-0.569043
28416,,8.760602,0.300305,4.621336,0.009752,0.019194,-0.004078,0.889160,0.418701,0.462158,0.641942,-0.329656,-0.394246,-0.569040
28417,,8.785241,0.323108,4.615195,0.006446,0.015590,-0.004832,0.895752,0.418945,0.468750,0.641956,-0.329666,-0.394235,-0.569026
28418,,8.759000,0.301947,4.624265,0.006602,0.017495,-0.008307,0.886963,0.416260,0.475342,0.641952,-0.329671,-0.394225,-0.569036
28419,,8.765158,0.310369,4.592985,0.002615,0.021222,-0.009015,0.895752,0.418945,0.466553,0.641959,-0.329669,-0.394192,-0.569052
28420,,8.738712,0.289308,4.602437,0.003995,0.020614,-0.009935,0.889160,0.418701,0.472900,0.641946,-0.329673,-0.394160,-0.569086
28421,,8.761553,0.291901,4.609545,0.003172,0.017603,-0.011360,0.893555,0.418701,0.468750,0.641941,-0.329675,-0.394144,-0.569102
28422,,8.738583,0.312196,4.592694,0.005452,0.020957,-0.012590,0.891602,0.409668,0.468994,0.641923,-0.329669,-0.394120,-0.569142
28423,,8.728721,0.285421,4.640648,0.003787,0.023371,-0.010491,0.891357,0.416504,0.473145,0.641933,-0.329654,-0.394086,-0.569164
28424,,8.733123,0.273396,4.622587,0.007694,0.018692,-0.008041,0.893799,0.416504,0.464355,0.641929,-0.329657,-0.394066,-0.569179
28425,,8.756058,0.276356,4.629500,0.007674,0.014921,-0.017028,0.891357,0.420898,0.468506,0.641910,-0.329641,-0.394081,-0.569200
28426,,8.782625,0.245846,4.629758,0.008948,0.021795,-0.011258,0.893799,0.416504,0.464355,0.641908,-0.329620,-0.394068,-0.569223
28427,,8.808779,0.289689,4.610903,0.006385,0.020248,-0.008851,0.891357,0.416504,0.473145,0.641920,-0.329609,-0.394049,-0.569229
28428,,8.776959,0.281876,4.640111,0.007766,0.019640,-0.009769,0.889160,0.416504,0.466553,0.641916,-0.329604,-0.394033,-0.569248
28429,,8.788576,0.277355,4.589019,0.006382,0.020246,-0.008846,0.895996,0.414307,0.466797,0.641928,-0.329593,-0.394014,-0.569255
28430,,8.780414,0.271008,4.623853,0.006177,0.023004,-0.009406,0.891357,0.418701,0.466553,0.641930,-0.329582,-0.393984,-0.569278
28431,,8.750158,0.283612,4.640203,0.003693,0.022409,-0.008738,0.893799,0.414307,0.468994,0.641942,-0.329574,-0.393950,-0.569293
28432,,8.781695,0.314435,4.601600,0.010400,0.022132,-0.013897,0.893799,0.416504,0.466553,0.641936,-0.329544,-0.393943,-0.569322
28433,,8.751445,0.327105,4.617906,0.000844,0.022669,-0.005158,0.891357,0.418701,0.468750,0.641954,-0.329551,-0.393893,-0.569332
28434,,8.779679,0.316282,4.605320,0.004176,0.017837,-0.009344,0.891602,0.414307,0.468750,0.641943,-0.329562,-0.393875,-0.569352
28435,,8.782516,0.283668,4.600221,0.003970,0.020596,-0.009904,0.891357,0.418701,0.468750,0.641948,-0.329555,-0.393849,-0.569367
28436,,8.754387,0.242166,4.622660,0.002949,0.020344,-0.011893,0.889160,0.418701,0.466553,0.641931,-0.329559,-0.393822,-0.569403
28437,,8.753366,0.243435,4.624526,0.004125,0.022495,-0.013370,0.895752,0.418945,0.464355,0.641931,-0.329540,-0.393796,-0.569432
28438,,8.732348,0.209517,4.614163,0.001641,0.021899,-0.012704,0.895996,0.416504,0.466553,0.641915,-0.329538,-0.393766,-0.569472
28439,,8.702171,0.222471,4.630236,0.007094,0.018521,-0.014642,0.891602,0.414307,0.468750,0.641908,-0.329518,-0.393764,-0.569492
28440,,8.721228,0.259114,4.644140,0.003228,0.018531,-0.013058,0.891357,0.416504,0.473145,0.641887,-0.329523,-0.393746,-0.569526
28441,,8.725814,0.247318,4.625930,0.006726,0.019376,-0.011727,0.893799,0.416504,0.466553,0.641890,-0.329508,-0.393735,-0.569539
28442,,8.755837,0.257648,4.600197,0.009127,0.019020,-0.010651,0.891357,0.416504,0.470947,0.641883,-0.329498,-0.393727,-0.569558
28443,,8.743861,0.285027,4.641647,0.008472,0.021685,-0.006564,0.891602,0.411865,0.468994,0.641908,-0.329481,-0.393705,-0.569555
28444,,8.790334,0.289093,4.654533,0.006277,0.019281,-0.007076,0.891357,0.418701,0.468750,0.641908,-0.329487,-0.393681,-0.569568
28445,,8.782232,0.282428,4.689060,0.006117,0.017380,-0.003605,0.889160,0.418701,0.468750,0.641929,-0.329495,-0.393661,-0.569553
28446,,8.794193,0.277484,4.637739,0.008884,0.016167,-0.005439,0.891602,0.412109,0.466797,0.641932,-0.329503,-0.393654,-0.569550
28447,,8.769696,0.276734,4.633595,0.007499,0.016773,-0.004520,0.891357,0.418701,0.470947,0.641951,-0.329507,-0.393642,-0.569535
28448,,8.794328,0.299442,4.627560,0.007131,0.017630,-0.001609,0.891357,0.416504,0.470947,0.641966,-0.329525,-0.393618,-0.569525
28449,,8.758816,0.291068,4.565256,0.003423,0.019540,-0.003500,0.895996,0.416504,0.468750,0.641987,-0.329536,-0.393584,-0.569518
28450,,8.775934,0.306679,4.592641,0.001497,0.025588,-0.014978,0.893799,0.412109,0.473389,0.641969,-0.329523,-0.393540,-0.569576
28451,,8.723820,0.263427,4.609961,-0.000706,0.026961,-0.006506,0.891357,0.418701,0.473145,0.641989,-0.329520,-0.393475,-0.569600
28452,,8.735193,0.291915,4.657512,0.002062,0.025746,-0.008336,0.891357,0.418701,0.468750,0.641988,-0.329521,-0.393418,-0.569640
28453,,8.725282,0.231491,4.607615,0.007521,0.022371,-0.010265,0.893799,0.414307,0.468994,0.642002,-0.329497,-0.393397,-0.569652
28454,,8.694964,0.244277,4.623749,0.009920,0.022016,-0.009186,0.891357,0.416504,0.464355,0.642009,-0.329478,-0.393381,-0.569667
28455,,8.660902,0.290745,4.646390,0.008017,0.017805,-0.010877,0.895752,0.421143,0.466309,0.642013,-0.329465,-0.393377,-0.569673
28456,,8.689497,0.280452,4.633382,0.003845,0.010243,-0.011355,0.889160,0.418701,0.468750,0.641983,-0.329491,-0.393390,-0.569682
28457,,8.737988,0.305515,4.632647,0.004888,0.016096,-0.015118,0.893799,0.409912,0.464600,0.641966,-0.329484,-0.393390,-0.569705
28458,,8.766403,0.295422,4.620001,0.004305,0.019710,-0.012766,0.891357,0.416504,0.473145,0.641951,-0.329482,-0.393373,-0.569735
28459,,8.759835,0.309587,4.641608,0.003563,0.021428,-0.006948,0.893555,0.421143,0.468506,0.641966,-0.329480,-0.393339,-0.569742
28460,,8.780996,0.291567,4.661817,0.001150,0.012400,-0.011251,0.891113,0.423096,0.477295,0.641931,-0.329513,-0.393331,-0.569769
28461,,8.813498,0.247473,4.642115,0.003339,0.014803,-0.010730,0.889160,0.418701,0.468750,0.641922,-0.329523,-0.393323,-0.569778
28462,,8.792966,0.213107,4.631063,0.002887,0.014714,-0.006088,0.886963,0.418701,0.466553,0.641906,-0.329555,-0.393302,-0.569793
28463,,8.792198,0.213826,4.632487,0.008570,0.017965,-0.004228,0.893799,0.416504,0.470947,0.641930,-0.329552,-0.393288,-0.569776
28464,,8.712875,0.202682,4.650106,0.012594,0.019849,-0.009259,0.891357,0.418701,0.470947,0.641937,-0.329530,-0.393287,-0.569783
28465,,8.713803,0.224409,4.638447,0.011551,0.013997,-0.005496,0.893555,0.416504,0.473145,0.641954,-0.329526,-0.393297,-0.569758
28466,,8.716574,0.266638,4.613462,0.016510,0.015187,-0.006801,0.893555,0.416504,0.473145,0.641962,-0.329512,-0.393314,-0.569746
28467,,8.713966,0.247305,4.628164,0.014324,0.022161,-0.004092,0.889160,0.420898,0.468506,0.642004,-0.329479,-0.393304,-0.569725
28468,,8.709154,0.282085,4.636511,0.016214,0.016992,-0.005621,0.889160,0.414063,0.473145,0.642019,-0.329461,-0.393314,-0.569711
28469,,8.692102,0.288982,4.599223,0.013946,0.013641,-0.004409,0.895752,0.420898,0.477295,0.642043,-0.329454,-0.393330,-0.569678
28470,,8.731502,0.286017,4.644561,0.016718,0.012428,-0.006234,0.891602,0.411865,0.468994,0.642044,-0.329449,-0.393352,-0.569663
28471,,8.756347,0.309166,4.638136,0.011384,0.012098,-0.002023,0.891357,0.416504,0.468750,0.642068,-0.329459,-0.393362,-0.569624
28472,,8.785088,0.298495,4.625077,0.010451,0.012789,-0.005747,0.891357,0.416504,0.473145,0.642068,-0.329472,-0.393370,-0.569612
28473,,8.771403,0.305131,4.678977,0.008769,0.015202,-0.003659,0.891357,0.416504,0.464355,0.642088,-0.329478,-0.393365,-0.569588
28474,,8.799982,0.294637,4.666225,0.009303,0.016232,-0.010027,0.895996,0.416504,0.470947,0.642080,-0.329475,-0.393367,-0.569598
28475,,8.745994,0.305532,4.676387,0.006738,0.024068,-0.004415,0.902832,0.409912,0.473389,0.642113,-0.329461,-0.393329,-0.569595
28476,,8.707095,0.256382,4.640584,0.010897,0.022248,-0.007149,0.891357,0.416504,0.479736,0.642127,-0.329445,-0.393308,-0.569603
28477,,8.700477,0.270690,4.662088,0.009005,0.018037,-0.008846,0.891357,0.416504,0.466553,0.642138,-0.329432,-0.393304,-0.569601
28478,,8.711088,0.245611,4.623818,0.010820,0.011923,-0.008642,0.895996,0.416504,0.468750,0.642124,-0.329442,-0.393316,-0.569602
28479,,8.728567,0.261494,4.650237,0.008260,0.010382,-0.006261,0.893555,0.418701,0.470947,0.642127,-0.329458,-0.393330,-0.569580
28480,,8.749522,0.318387,4.650375,0.010818,0.011922,-0.008639,0.889160,0.418701,0.468750,0.642116,-0.329466,-0.393347,-0.569576
28481,,8.769133,0.280004,4.683401,0.008974,0.012445,-0.003090,0.893555,0.416504,0.473145,0.642133,-0.329481,-0.393351,-0.569546
28482,,8.770226,0.301342,4.671424,0.006736,0.014685,-0.007635,0.889160,0.418701,0.466553,0.642122,-0.329496,-0.393344,-0.569554
28483,,8.723886,0.319393,4.648161,0.006359,0.015547,-0.004728,0.897949,0.421143,0.470703,0.642137,-0.329507,-0.393333,-0.569539
28484,,8.758319,0.295386,4.615464,0.004391,0.010392,-0.004697,0.893555,0.421143,0.468506,0.642123,-0.329546,-0.393333,-0.569532
28485,,8.726607,0.287130,4.643747,0.007745,0.014940,-0.005637,0.895996,0.416504,0.475342,0.642136,-0.329552,-0.393329,-0.569516
28486,,8.724248,0.267736,4.657980,0.008713,0.010460,-0.010889,0.891357,0.416504,0.475342,0.642110,-0.329567,-0.393347,-0.569525
28487,,8.753102,0.257365,4.644850,0.005857,0.010728,-0.007336,0.893799,0.414307,0.468994,0.642107,-0.329588,-0.393354,-0.569512
28488,,8.728887,0.256920,4.640074,0.008792,0.011404,-0.012617,0.891602,0.414307,0.466797,0.642078,-0.329598,-0.393370,-0.569527
28489,,8.730064,0.278638,4.627919,0.006946,0.011929,-0.007070,0.897949,0.421143,0.475098,0.642080,-0.329612,-0.393376,-0.569513
28490,,8.731262,0.300214,4.615730,0.009720,0.010715,-0.008889,0.893799,0.414307,0.470947,0.642062,-0.329627,-0.393393,-0.569512
28491,,8.756171,0.323512,4.609191,0.007241,0.010120,-0.008242,0.893799,0.416504,0.464355,0.642057,-0.329644,-0.393408,-0.569498
28492,,8.766212,0.332128,4.668385,0.005140,0.008661,-0.010500,0.889160,0.418701,0.472900,0.642028,-0.329675,-0.393424,-0.569502
28493,,8.808202,0.315925,4.602713,0.005715,0.014421,-0.009618,0.893799,0.416504,0.466553,0.642025,-0.329681,-0.393423,-0.569502
28494,,8.776273,0.307841,4.631337,0.001334,0.018991,-0.007445,0.893799,0.416504,0.470947,0.642015,-0.329701,-0.393388,-0.569526
28495,,8.775431,0.308657,4.632878,-0.002867,0.016072,-0.011961,0.889160,0.416504,0.466553,0.641994,-0.329726,-0.393361,-0.569554
28496,,8.725498,0.285774,4.636089,0.002799,0.019327,-0.010080,0.889160,0.416504,0.464355,0.641981,-0.329735,-0.393334,-0.569582
28497,,8.728754,0.253345,4.630813,0.002901,0.010894,-0.015039,0.900391,0.416504,0.475342,0.641951,-0.329750,-0.393345,-0.569600
28498,,8.722611,0.267928,4.651240,0.005735,0.005043,-0.012840,0.891357,0.416504,0.468750,0.641906,-0.329785,-0.393376,-0.569608
28499,,8.745941,0.270801,4.657557,0.002659,0.008063,-0.009848,0.893555,0.416504,0.475342,0.641885,-0.329819,-0.393387,-0.569605
28500,,8.767454,0.253136,4.677186,0.004127,0.008399,-0.012485,0.895752,0.418701,0.473145,0.641843,-0.329853,-0.393400,-0.569624
28501,,8.774479,0.261596,4.645087,-0.001048,0.009958,-0.011753,0.891602,0.411865,0.468994,0.641814,-0.329889,-0.393397,-0.569638
28502,,8.753638,0.302135,4.614158,0.002458,0.016392,-0.016144,0.891357,0.418701,0.475098,0.641775,-0.329898,-0.393386,-0.569684
28503,,8.782240,0.292127,4.601643,0.001068,0.016997,-0.015234,0.893555,0.421143,0.470703,0.641754,-0.329901,-0.393372,-0.569715
28504,,8.769742,0.319965,4.642871,0.003104,0.023093,-0.016984,0.891357,0.416504,0.470947,0.641724,-0.329886,-0.393342,-0.569778
28505,,8.750739,0.306576,4.619360,0.001633,0.022754,-0.014344,0.895752,0.421143,0.466309,0.641717,-0.329873,-0.393310,-0.569816
28506,,8.726115,0.306156,4.615323,0.002073,0.017252,-0.013232,0.891357,0.416504,0.468750,0.641690,-0.329883,-0.393295,-0.569852
28507,,8.741447,0.301559,4.655466,-0.001875,0.016318,-0.009952,0.893799,0.412109,0.468994,0.641677,-0.329907,-0.393266,-0.569871
28508,,8.734466,0.261243,4.591702,-0.002362,0.011501,-0.012565,0.889160,0.416504,0.468750,0.641634,-0.329951,-0.393253,-0.569903
28509,,8.742503,0.249376,4.664309,0.000114,0.012097,-0.013205,0.889160,0.418701,0.470947,0.641607,-0.329975,-0.393249,-0.569923
28510,,8.753516,0.224139,4.625863,0.000034,0.011154,-0.011476,0.893555,0.418701,0.475098,0.641568,-0.330013,-0.393242,-0.569950
28511,,8.776498,0.226909,4.632879,-0.000411,0.016652,-0.012582,0.893555,0.421143,0.470703,0.641551,-0.330027,-0.393221,-0.569975
28512,,8.728370,0.224770,4.622773,0.003534,0.017586,-0.015856,0.891357,0.420898,0.466309,0.641514,-0.330029,-0.393209,-0.570024
28513,,8.752856,0.248420,4.617037,0.004238,0.019652,-0.012685,0.893555,0.420898,0.475098,0.641511,-0.330019,-0.393191,-0.570046
28514,,8.728349,0.248105,4.612776,0.004841,0.016036,-0.015031,0.889160,0.418701,0.468750,0.641477,-0.330021,-0.393189,-0.570084
28515,,8.729356,0.269984,4.600903,0.007078,0.013807,-0.010487,0.891357,0.416504,0.475342,0.641473,-0.330023,-0.393195,-0.570083
28516,,8.776035,0.274778,4.613627,0.009777,0.011655,-0.010571,0.891602,0.412109,0.466797,0.641452,-0.330032,-0.393210,-0.570092
28517,,8.767842,0.268841,4.647646,0.007155,0.014747,-0.012211,0.893799,0.416504,0.468750,0.641444,-0.330028,-0.393216,-0.570098
28518,,8.761360,0.283228,4.668523,0.003512,0.012005,-0.010112,0.891357,0.416504,0.468750,0.641420,-0.330055,-0.393216,-0.570110
28519,,8.770752,0.237342,4.643227,0.009233,0.010636,-0.004213,0.898193,0.414307,0.466797,0.641431,-0.330072,-0.393228,-0.570080
28520,,8.801368,0.247156,4.617251,0.005221,0.014333,-0.004947,0.889160,0.416504,0.473145,0.641429,-0.330097,-0.393218,-0.570075
28521,,8.778752,0.266577,4.599552,0.006307,0.015535,-0.004678,0.895752,0.418945,0.466553,0.641443,-0.330108,-0.393206,-0.570060
28522,,8.836973,0.244759,4.573171,0.009245,0.016207,-0.009942,0.893555,0.418701,0.470947,0.641434,-0.330106,-0.393207,-0.570071
28523,,8.804287,0.311322,4.581917,0.006080,0.018281,-0.005228,0.893799,0.416504,0.466553,0.641452,-0.330108,-0.393187,-0.570063
28524,,8.803306,0.312320,4.583733,0.008488,0.023508,-0.009869,0.891357,0.418701,0.466553,0.641457,-0.330087,-0.393164,-0.570085
28525,,8.725402,0.321531,4.587972,0.008566,0.024447,-0.011592,0.893799,0.416504,0.468750,0.641473,-0.330052,-0.393142,-0.570103
28526,,8.740426,0.317332,4.628537,0.005533,0.018091,-0.011843,0.895752,0.421143,0.468506,0.641458,-0.330051,-0.393133,-0.570127
28527,,8.696409,0.281360,4.611884,0.004141,0.018695,-0.010937,0.893555,0.420898,0.475098,0.641457,-0.330047,-0.393115,-0.570142
28528,,8.715004,0.318108,4.625876,-0.001274,0.018251,-0.018010,0.891357,0.420898,0.472900,0.641409,-0.330057,-0.393093,-0.570206
28529,,8.746099,0.253675,4.620194,0.001502,0.016215,-0.006846,0.893555,0.418701,0.466553,0.641411,-0.330077,-0.393069,-0.570208
28530,,8.768996,0.256393,4.627403,0.002273,0.014481,-0.012643,0.891357,0.416504,0.470947,0.641379,-0.330096,-0.393061,-0.570239
28531,,8.766581,0.236763,4.641826,0.000336,0.014071,-0.005388,0.893555,0.418701,0.473145,0.641379,-0.330129,-0.393039,-0.570236
28532,,8.773441,0.244811,4.610363,0.001658,0.018093,-0.010293,0.893555,0.416504,0.473145,0.641358,-0.330146,-0.393011,-0.570269
28533,,8.776743,0.212234,4.605432,0.006529,0.018349,-0.009834,0.898193,0.418945,0.475342,0.641364,-0.330138,-0.392999,-0.570275
28534,,8.771732,0.247189,4.613489,0.009310,0.017139,-0.011639,0.889160,0.416504,0.468750,0.641348,-0.330132,-0.392996,-0.570297
28535,,8.770896,0.248504,4.615007,0.008922,0.018005,-0.008738,0.895752,0.418945,0.466553,0.641360,-0.330120,-0.392991,-0.570294
28536,,8.774309,0.216093,4.609889,0.012936,0.014312,-0.007997,0.897949,0.421143,0.464355,0.641361,-0.330113,-0.393009,-0.570285
28537,,8.722153,0.247756,4.605902,0.016960,0.016184,-0.012980,0.898193,0.418945,0.470947,0.641371,-0.330072,-0.393040,-0.570277
28538,,8.739072,0.264206,4.632885,0.011233,0.016721,-0.005917,0.891602,0.411865,0.471191,0.641380,-0.330067,-0.393043,-0.570266
28539,,8.738300,0.265259,4.634280,0.016023,0.016038,-0.003729,0.891357,0.416504,0.473145,0.641414,-0.330048,-0.393056,-0.570230
28540,,8.747562,0.219391,4.609687,0.016488,0.020854,-0.001109,0.888916,0.423096,0.472900,0.641451,-0.330029,-0.393045,-0.570209
28541,,8.764308,0.235382,4.637005,0.019269,0.019643,-0.002910,0.898193,0.418945,0.470947,0.641499,-0.329990,-0.393054,-0.570170
28542,,8.769324,0.223278,4.619023,0.020270,0.019905,-0.000911,0.891357,0.418701,0.470947,0.641539,-0.329959,-0.393059,-0.570139
28543,,8.746557,0.242935,4.601548,0.019185,0.018701,-0.001180,0.898193,0.414307,0.468994,0.641591,-0.329927,-0.393069,-0.570093
28544,,8.757299,0.272389,4.648593,0.023982,0.023578,-0.004712,0.889160,0.416504,0.468750,0.641636,-0.329867,-0.393080,-0.570069
28545,,8.747978,0.341019,4.663130,0.020801,0.015348,-0.001523,0.891602,0.414307,0.468750,0.641683,-0.329838,-0.393105,-0.570015
28546,,8.759092,0.316166,4.625202,0.023903,0.017887,-0.010220,0.889160,0.416504,0.466553,0.641702,-0.329783,-0.393144,-0.569999
28547,,8.722809,0.342206,4.659893,0.014847,0.013888,-0.002257,0.898193,0.418945,0.473145,0.641735,-0.329776,-0.393158,-0.569957
28548,,8.732266,0.296306,4.635091,0.013614,0.016367,-0.004804,0.895996,0.412109,0.475586,0.641748,-0.329769,-0.393163,-0.569942
28549,,8.747286,0.292031,4.675470,0.011069,0.020388,-0.008175,0.895996,0.416504,0.470947,0.641770,-0.329744,-0.393156,-0.569938
28550,,8.728783,0.278171,4.651426,0.006741,0.015578,-0.009263,0.893799,0.416504,0.468750,0.641756,-0.329757,-0.393146,-0.569953
28551,,8.737457,0.306999,4.606780,0.008903,0.017982,-0.008716,0.889160,0.416504,0.470947,0.641768,-0.329744,-0.393141,-0.569950
28552,,8.752452,0.302691,4.647191,0.005116,0.018926,-0.008912,0.893799,0.416504,0.470947,0.641761,-0.329750,-0.393119,-0.569970
28553,,8.729619,0.322490,4.629776,0.006356,0.022000,-0.012085,0.895996,0.416504,0.470947,0.641767,-0.329728,-0.393100,-0.569989
28554,,8.738765,0.276818,4.605694,0.003569,0.023209,-0.010284,0.889160,0.414063,0.468750,0.641761,-0.329724,-0.393062,-0.570024
28555,,8.749342,0.306418,4.652801,0.005664,0.019924,-0.015249,0.891357,0.420898,0.470703,0.641753,-0.329704,-0.393052,-0.570052
28556,,8.752747,0.273940,4.647906,-0.000606,0.014719,-0.009099,0.886963,0.416504,0.468750,0.641727,-0.329738,-0.393028,-0.570077
28557,,8.785885,0.229825,4.629158,0.000866,0.015049,-0.011720,0.893799,0.416504,0.468750,0.641712,-0.329754,-0.393015,-0.570095
28558,,8.777289,0.223782,4.663530,0.004186,0.019591,-0.012620,0.893555,0.418701,0.473145,0.641695,-0.329752,-0.392996,-0.570128
