// Start Time: Unknown
// Update Rate: 100.0Hz
// Filter Profile: human (46.1)
// Option Flags: AHS Disabled ICC Disabled 
// Firmware Version: 4.3.4
PacketCounter,SampleTimeFine,Acc_X,Acc_Y,Acc_Z,Gyr_X,Gyr_Y,Gyr_Z,Mag_X,Mag_Y,Mag_Z,Quat_q0,Quat_q1,Quat_q2,Quat_q3
27626,,4.075772,1.996803,8.865915,0.001735,0.009267,-0.019230,0.604492,-0.183594,0.660889,-0.675218,-0.224693,0.073135,-0.698745
27627,,4.074382,1.997731,8.866345,0.000249,0.012812,-0.022011,0.606934,-0.187988,0.663330,-0.675224,-0.224678,0.073132,-0.698744
27628,,4.086548,1.989586,8.836375,0.001984,0.009420,-0.021436,0.604492,-0.181396,0.667236,-0.675225,-0.224686,0.073131,-0.698741
27629,,4.083685,2.027505,8.883726,0.000828,0.008954,-0.020554,0.608887,-0.183594,0.663086,-0.675224,-0.224685,0.073142,-0.698741
27630,,4.084011,1.991524,8.837112,0.001570,0.011264,-0.021066,0.602295,-0.179199,0.658691,-0.675225,-0.224685,0.073136,-0.698741
27631,,4.082518,1.992497,8.837582,0.001156,0.013110,-0.020694,0.602295,-0.179199,0.662842,-0.675226,-0.224671,0.073131,-0.698745
27632,,4.103178,2.000934,8.845562,0.002150,0.007408,-0.019607,0.604492,-0.181396,0.658691,-0.675220,-0.224685,0.073138,-0.698746
27633,,4.073573,2.025876,8.825953,-0.002556,0.009713,-0.021946,0.604248,-0.178955,0.658691,-0.675229,-0.224671,0.073156,-0.698739
27634,,4.066716,1.967198,8.822196,-0.000908,0.012332,-0.021137,0.606689,-0.185791,0.661133,-0.675234,-0.224659,0.073156,-0.698739
27635,,4.070773,2.027515,8.826869,0.001984,0.009406,-0.021443,0.602295,-0.181396,0.660889,-0.675234,-0.224661,0.073159,-0.698737
27636,,4.072369,1.985658,8.861005,0.000413,0.010788,-0.020189,0.604492,-0.185791,0.663330,-0.675233,-0.224658,0.073160,-0.698739
27637,,4.084663,1.977588,8.831001,0.004046,0.010175,-0.021005,0.606689,-0.185791,0.661133,-0.675231,-0.224665,0.073154,-0.698740
27638,,4.076886,2.010294,8.818968,0.001984,0.009399,-0.021446,0.604492,-0.183594,0.665283,-0.675232,-0.224672,0.073153,-0.698736
27639,,4.068669,1.988856,8.861988,0.001660,0.005238,-0.021308,0.608887,-0.183594,0.665283,-0.675231,-0.224688,0.073172,-0.698730
27640,,4.074736,2.012358,8.819491,0.001983,0.009395,-0.021448,0.606934,-0.185791,0.669678,-0.675232,-0.224696,0.073171,-0.698727
27641,,4.094823,1.966796,8.882585,-0.000079,0.008619,-0.021888,0.600098,-0.181396,0.665283,-0.675237,-0.224694,0.073184,-0.698722
27642,,4.086905,1.999117,8.870688,-0.001577,0.014006,-0.018569,0.600098,-0.183838,0.665283,-0.675233,-0.224672,0.073183,-0.698732
27643,,4.102669,2.002168,8.819403,0.003139,0.009853,-0.022333,0.602295,-0.181396,0.663086,-0.675239,-0.224677,0.073181,-0.698726
27644,,4.075765,1.984573,8.833545,0.002722,0.011699,-0.021963,0.602539,-0.186035,0.663330,-0.675242,-0.224679,0.073169,-0.698723
27645,,4.062489,1.957773,8.817354,0.000661,0.010921,-0.022404,0.604492,-0.183594,0.660889,-0.675249,-0.224672,0.073170,-0.698718
27646,,4.076562,1.997875,8.812982,0.001984,0.009383,-0.021454,0.602295,-0.183594,0.663086,-0.675250,-0.224680,0.073169,-0.698715
27647,,4.079990,2.004293,8.872703,0.001078,0.009069,-0.022778,0.604492,-0.185791,0.663330,-0.675257,-0.224681,0.073175,-0.698707
27648,,4.088895,1.985096,8.864014,0.002651,0.007684,-0.024033,0.604492,-0.185791,0.661133,-0.675266,-0.224697,0.073175,-0.698694
27649,,4.091226,1.997527,8.842940,0.002233,0.009528,-0.023663,0.604492,-0.185791,0.661133,-0.675273,-0.224701,0.073174,-0.698685
27650,,4.079733,2.018923,8.852317,0.001565,0.011221,-0.021087,0.604736,-0.185791,0.665283,-0.675274,-0.224701,0.073169,-0.698685
27651,,4.084880,1.988384,8.865128,0.002470,0.011531,-0.019765,0.604736,-0.187988,0.663330,-0.675269,-0.224697,0.073165,-0.698692
27652,,4.093711,1.969057,8.856523,0.001733,0.009218,-0.019254,0.602539,-0.188232,0.665527,-0.675263,-0.224704,0.073168,-0.698695
27653,,4.096055,1.981283,8.835492,0.001078,0.009055,-0.022785,0.606689,-0.181396,0.663086,-0.675268,-0.224705,0.073174,-0.698689
27654,,4.094851,1.982419,8.835795,0.003558,0.007983,-0.022716,0.604248,-0.176758,0.660645,-0.675271,-0.224723,0.073170,-0.698680
27655,,4.047966,2.005312,8.867758,0.001247,0.007052,-0.020952,0.602295,-0.181396,0.660889,-0.675272,-0.224731,0.073185,-0.698675
27656,,4.114257,1.992098,8.844129,0.000975,0.015052,-0.022558,0.604492,-0.185791,0.661133,-0.675281,-0.224716,0.073167,-0.698674
27657,,4.055160,1.987096,8.859662,0.004043,0.010136,-0.021025,0.609131,-0.187988,0.667725,-0.675278,-0.224723,0.073161,-0.698675
27658,,4.071195,1.990575,8.808220,0.004714,0.008438,-0.023603,0.604492,-0.181396,0.660889,-0.675283,-0.224744,0.073151,-0.698664
27659,,4.106614,1.984545,8.866570,0.001329,0.009190,-0.024999,0.602295,-0.181396,0.660889,-0.675297,-0.224746,0.073153,-0.698650
27660,,4.058337,2.013314,8.817879,0.002969,0.011812,-0.024188,0.606689,-0.178955,0.667236,-0.675307,-0.224750,0.073137,-0.698641
27661,,4.081797,1.979335,8.859730,0.002718,0.011659,-0.021983,0.602295,-0.183594,0.663086,-0.675312,-0.224747,0.073129,-0.698638
27662,,4.095595,2.019607,8.855407,0.001813,0.011342,-0.023308,0.602295,-0.179199,0.658691,-0.675321,-0.224748,0.073120,-0.698630
27663,,4.082379,1.992694,8.839255,-0.001572,0.012092,-0.024705,0.606689,-0.178955,0.665039,-0.675339,-0.224730,0.073123,-0.698617
27664,,4.070610,2.013886,8.848741,0.001140,0.013034,-0.020733,0.604492,-0.183594,0.665283,-0.675340,-0.224722,0.073113,-0.698620
27665,,4.075814,1.983412,8.861573,0.002235,0.009489,-0.023682,0.606689,-0.183594,0.660889,-0.675350,-0.224726,0.073113,-0.698609
27666,,4.078114,1.995929,8.840493,0.004716,0.008421,-0.023612,0.608887,-0.181152,0.663086,-0.675355,-0.224747,0.073103,-0.698599
27667,,4.098763,2.004773,8.848458,0.001079,0.009020,-0.022802,0.606934,-0.187988,0.658936,-0.675361,-0.224748,0.073108,-0.698592
27668,,4.072035,1.986992,8.862508,0.003138,0.009797,-0.022361,0.608887,-0.183594,0.667480,-0.675365,-0.224759,0.073101,-0.698586
27669,,4.074128,1.999362,8.841555,0.001390,0.013170,-0.022947,0.604492,-0.185791,0.658936,-0.675371,-0.224747,0.073091,-0.698585
27670,,4.082823,1.980161,8.833064,0.000909,0.011006,-0.024644,0.604492,-0.181396,0.663086,-0.675385,-0.224747,0.073085,-0.698572
27671,,4.050520,2.042110,8.860410,0.002544,0.013629,-0.023833,0.608887,-0.185791,0.658936,-0.675395,-0.224737,0.073068,-0.698567
27672,,4.105175,2.001235,8.820307,-0.000498,0.010388,-0.021556,0.602295,-0.179199,0.665039,-0.675399,-0.224733,0.073072,-0.698564
27673,,4.068016,2.003311,8.843476,-0.001598,0.013928,-0.018609,0.604736,-0.185791,0.665283,-0.675396,-0.224707,0.073075,-0.698575
27674,,4.076665,1.983859,8.835078,-0.000417,0.012523,-0.025604,0.604492,-0.181396,0.667236,-0.675416,-0.224697,0.073067,-0.698560
27675,,4.083236,2.001661,8.873517,0.004042,0.010100,-0.021043,0.606689,-0.181396,0.667236,-0.675414,-0.224704,0.073061,-0.698560
27676,,4.092114,1.982581,8.864941,0.002715,0.011625,-0.022000,0.606689,-0.181396,0.665039,-0.675417,-0.224707,0.073049,-0.698557
27677,,4.051874,2.027806,8.854160,0.002237,0.009460,-0.023697,0.608887,-0.181152,0.665039,-0.675427,-0.224710,0.073048,-0.698547
27678,,4.082723,2.016351,8.853241,0.001984,0.009311,-0.021489,0.604492,-0.179199,0.665039,-0.675428,-0.224719,0.073048,-0.698543
27679,,4.056052,1.998464,8.867256,0.002886,0.009627,-0.020164,0.602295,-0.183594,0.663086,-0.675426,-0.224723,0.073048,-0.698544
27680,,4.093847,2.009545,8.823683,0.001640,0.013288,-0.025170,0.608887,-0.183594,0.663086,-0.675441,-0.224717,0.073031,-0.698532
27681,,4.067004,1.991613,8.837786,-0.000073,0.008521,-0.021936,0.602295,-0.185791,0.661133,-0.675446,-0.224716,0.073042,-0.698527
27682,,4.097750,1.980056,8.836971,0.001386,0.013137,-0.022964,0.606689,-0.183594,0.658691,-0.675454,-0.224709,0.073029,-0.698523
27683,,4.085851,2.001306,8.846423,0.001133,0.012988,-0.020756,0.606689,-0.183594,0.663086,-0.675454,-0.224697,0.073022,-0.698528
27684,,4.084289,2.002229,8.846936,-0.000671,0.012348,-0.023410,0.602295,-0.183594,0.663086,-0.675466,-0.224686,0.073019,-0.698520
27685,,4.047085,2.004429,8.870007,0.001559,0.011140,-0.021128,0.606689,-0.183594,0.665283,-0.675467,-0.224681,0.073017,-0.698521
27686,,4.059455,1.996471,8.840160,0.001386,0.013126,-0.022969,0.604736,-0.188232,0.665527,-0.675475,-0.224674,0.073003,-0.698516
27687,,4.079697,2.005185,8.848385,-0.000671,0.012339,-0.023415,0.597900,-0.181641,0.663086,-0.675486,-0.224659,0.073003,-0.698511
27688,,4.074680,1.994820,8.870224,0.001305,0.010988,-0.018922,0.604492,-0.179199,0.660645,-0.675480,-0.224657,0.073001,-0.698517
27689,,4.080421,2.018277,8.827907,0.001559,0.011131,-0.021132,0.602295,-0.181396,0.660889,-0.675484,-0.224652,0.073000,-0.698516
27690,,4.064084,1.979981,8.833007,-0.000071,0.008500,-0.021947,0.604248,-0.176758,0.660645,-0.675488,-0.224657,0.073009,-0.698509
27691,,4.099561,2.027913,8.836442,0.002032,0.013290,-0.019438,0.608887,-0.181152,0.667236,-0.675486,-0.224645,0.073000,-0.698516
27692,,4.069160,1.998551,8.871918,0.000403,0.010659,-0.020253,0.604248,-0.174561,0.662598,-0.675485,-0.224643,0.073001,-0.698517
27693,,4.067751,1.999536,8.872342,0.001813,0.011266,-0.023346,0.604492,-0.179199,0.660645,-0.675497,-0.224639,0.072996,-0.698508
27694,,4.069903,2.011781,8.851397,0.000403,0.010655,-0.020255,0.604492,-0.185791,0.663330,-0.675496,-0.224636,0.072998,-0.698509
27695,,4.082276,2.003744,8.821614,0.000055,0.014626,-0.023939,0.604492,-0.183594,0.660889,-0.675510,-0.224616,0.072986,-0.698504
27696,,4.063165,2.002289,8.873822,0.000621,0.012671,-0.016351,0.597900,-0.183838,0.660889,-0.675496,-0.224605,0.072984,-0.698521
27697,,4.075780,1.994361,8.843912,0.002926,0.007715,-0.026298,0.602295,-0.183594,0.663086,-0.675513,-0.224619,0.072983,-0.698500
27698,,4.084769,1.975124,8.835417,-0.001610,0.013867,-0.018640,0.608887,-0.185791,0.667480,-0.675510,-0.224598,0.072983,-0.698510
27699,,4.066070,2.027546,8.832404,0.000403,0.010644,-0.020260,0.602295,-0.181396,0.663086,-0.675508,-0.224591,0.072987,-0.698513
27700,,4.049761,1.989133,8.837528,0.000403,0.010642,-0.020261,0.606689,-0.181152,0.660889,-0.675507,-0.224588,0.072989,-0.698514
27701,,4.063063,1.975323,8.888431,0.000658,0.010783,-0.022473,0.604492,-0.181396,0.663086,-0.675515,-0.224582,0.072989,-0.698509
27702,,4.068810,1.998781,8.846123,0.001303,0.010961,-0.018935,0.606689,-0.183594,0.665283,-0.675509,-0.224581,0.072988,-0.698516
27703,,4.067328,1.999740,8.846588,0.000484,0.012763,-0.024318,0.608887,-0.183594,0.663086,-0.675523,-0.224568,0.072981,-0.698507
27704,,4.072661,1.969125,8.859549,-0.001183,0.012011,-0.019016,0.606689,-0.183594,0.660889,-0.675520,-0.224555,0.072985,-0.698513
27705,,4.075624,2.029499,8.864273,0.003183,0.013727,-0.020335,0.595703,-0.179443,0.660889,-0.675516,-0.224547,0.072968,-0.698522
27706,,4.084489,2.010252,8.855867,-0.000927,0.012148,-0.021229,0.604492,-0.179199,0.662842,-0.675521,-0.224535,0.072968,-0.698521
27707,,4.061223,2.003393,8.848566,0.003613,0.011881,-0.020705,0.600098,-0.181396,0.665283,-0.675522,-0.224535,0.072957,-0.698521
27708,,4.070183,1.984186,8.840117,-0.000028,0.012467,-0.019902,0.604492,-0.183594,0.665283,-0.675521,-0.224524,0.072955,-0.698526
27709,,4.058285,2.005277,8.849487,0.001559,0.011088,-0.021153,0.600098,-0.179199,0.665039,-0.675524,-0.224519,0.072953,-0.698524
27710,,4.078684,2.014027,8.857684,-0.001395,0.009972,-0.022930,0.602295,-0.179199,0.660645,-0.675534,-0.224514,0.072960,-0.698515
27711,,4.091358,2.005963,8.827846,0.001302,0.010943,-0.018944,0.602539,-0.186035,0.663330,-0.675532,-0.224508,0.072962,-0.698520
27712,,4.086391,1.995721,8.849625,0.003613,0.011872,-0.020709,0.604492,-0.185791,0.663330,-0.675529,-0.224513,0.072948,-0.698522
27713,,4.084957,1.996805,8.850042,0.001559,0.011079,-0.021158,0.606689,-0.185791,0.665283,-0.675529,-0.224508,0.072945,-0.698524
27714,,4.083554,1.997807,8.850464,0.001558,0.011077,-0.021159,0.600098,-0.186035,0.661133,-0.675530,-0.224509,0.072940,-0.698523
27715,,4.068138,2.007631,8.881148,-0.000495,0.010285,-0.021607,0.600098,-0.183594,0.660889,-0.675534,-0.224500,0.072947,-0.698522
27716,,4.080760,1.999551,8.851358,-0.000030,0.012449,-0.019912,0.604492,-0.183594,0.658691,-0.675533,-0.224490,0.072945,-0.698526
27717,,4.057583,1.992507,8.844037,0.000403,0.010606,-0.020280,0.602295,-0.183594,0.658691,-0.675532,-0.224483,0.072948,-0.698529
27718,,4.077916,2.001224,8.852291,-0.000030,0.012444,-0.019914,0.602295,-0.181396,0.667236,-0.675531,-0.224473,0.072946,-0.698533
27719,,4.061978,2.016665,8.802208,-0.001217,0.007970,-0.021097,0.606689,-0.183594,0.660889,-0.675535,-0.224470,0.072964,-0.698528
27720,,4.093384,1.999612,8.882296,0.003435,0.013837,-0.022562,0.606934,-0.187988,0.667725,-0.675540,-0.224467,0.072942,-0.698527
27721,,4.063051,2.024075,8.862577,-0.001620,0.013813,-0.018668,0.604492,-0.181396,0.660889,-0.675535,-0.224442,0.072943,-0.698539
27722,,4.082628,1.984645,8.845264,0.002250,0.009360,-0.023746,0.606689,-0.181396,0.663086,-0.675544,-0.224452,0.072939,-0.698528
27723,,4.052687,2.009227,8.825327,0.001735,0.009079,-0.019323,0.606689,-0.183594,0.665283,-0.675538,-0.224454,0.072944,-0.698532
27724,,4.069566,2.006828,8.854865,0.001558,0.011056,-0.021169,0.606689,-0.178955,0.665039,-0.675539,-0.224455,0.072940,-0.698532
27725,,4.056805,1.979690,8.838678,-0.000209,0.014408,-0.021767,0.604492,-0.185791,0.661133,-0.675547,-0.224433,0.072931,-0.698532
27726,,4.062916,1.997334,8.877235,-0.000494,0.010259,-0.021620,0.604492,-0.179199,0.665039,-0.675552,-0.224429,0.072936,-0.698528
27727,,4.061491,1.998180,8.877697,0.001762,0.013079,-0.017263,0.602295,-0.183594,0.660889,-0.675540,-0.224418,0.072930,-0.698544
27728,,4.070603,1.979125,8.869227,0.004304,0.010139,-0.023304,0.597900,-0.181641,0.663086,-0.675545,-0.224431,0.072916,-0.698536
27729,,4.058779,2.000380,8.878442,-0.000058,0.008412,-0.021990,0.604492,-0.183594,0.663086,-0.675552,-0.224431,0.072928,-0.698528
27730,,4.067472,1.986746,8.789265,-0.001624,0.013792,-0.018679,0.602295,-0.183594,0.663086,-0.675549,-0.224410,0.072928,-0.698538
27731,,4.088168,1.989740,8.878359,0.001558,0.011042,-0.021177,0.604248,-0.176758,0.660645,-0.675551,-0.224406,0.072925,-0.698538
27732,,4.072177,2.005371,8.828241,0.002455,0.011368,-0.019847,0.604492,-0.183594,0.658691,-0.675546,-0.224408,0.072917,-0.698542
27733,,4.092491,2.014337,8.836483,0.001558,0.011037,-0.021179,0.602295,-0.181396,0.660889,-0.675548,-0.224404,0.072915,-0.698542
27734,,4.072750,1.964656,8.862956,0.001122,0.012874,-0.020814,0.604492,-0.183594,0.660889,-0.675550,-0.224396,0.072906,-0.698544
27735,,4.089580,2.016387,8.837363,0.003151,0.009659,-0.022429,0.597900,-0.183838,0.669678,-0.675553,-0.224403,0.072900,-0.698539
27736,,4.059310,1.986952,8.872653,0.002914,0.013528,-0.018153,0.608887,-0.185791,0.658936,-0.675543,-0.224398,0.072886,-0.698552
27737,,4.069048,2.015995,8.889772,-0.000055,0.008394,-0.021999,0.608887,-0.178955,0.665039,-0.675548,-0.224398,0.072897,-0.698546
27738,,4.092414,1.987803,8.851149,0.000165,0.014431,-0.016026,0.606689,-0.181396,0.667236,-0.675534,-0.224380,0.072891,-0.698566
27739,,4.080363,2.008849,8.860475,0.002256,0.009322,-0.023765,0.602295,-0.181396,0.665283,-0.675544,-0.224385,0.072889,-0.698554
27740,,4.082526,2.021136,8.839540,0.000861,0.012725,-0.018607,0.602295,-0.181396,0.663086,-0.675538,-0.224377,0.072884,-0.698564
27741,,4.088047,1.990610,8.852537,0.000225,0.012529,-0.022154,0.602295,-0.181396,0.665283,-0.675547,-0.224363,0.072880,-0.698560
27742,,4.086708,1.991476,8.852960,0.000582,0.008578,-0.018459,0.600098,-0.179199,0.660645,-0.675539,-0.224368,0.072890,-0.698565
27743,,4.053160,2.004442,8.854348,0.001299,0.010880,-0.018976,0.600098,-0.181396,0.663086,-0.675536,-0.224362,0.072892,-0.698570
27744,,4.084124,1.993436,8.853711,0.004308,0.010107,-0.023320,0.602295,-0.183594,0.658691,-0.675541,-0.224376,0.072878,-0.698561
27745,,4.075569,2.026034,8.841629,0.001379,0.012985,-0.023040,0.604492,-0.183594,0.665283,-0.675551,-0.224365,0.072867,-0.698557
27746,,4.059559,1.987624,8.846688,0.001738,0.009036,-0.019345,0.606689,-0.178955,0.667236,-0.675545,-0.224373,0.072871,-0.698560
27747,,4.090857,2.024614,8.871718,-0.000476,0.014217,-0.019582,0.600098,-0.179199,0.658691,-0.675546,-0.224350,0.072866,-0.698567
27748,,4.052979,1.978029,8.869042,0.001119,0.012843,-0.020830,0.602295,-0.179199,0.662842,-0.675547,-0.224343,0.072857,-0.698569
27749,,4.076726,1.998163,8.856055,-0.000296,0.012240,-0.017735,0.608643,-0.178955,0.662842,-0.675542,-0.224327,0.072861,-0.698579
27750,,4.057234,2.002190,8.827302,-0.000491,0.010203,-0.021649,0.606689,-0.181396,0.663086,-0.675547,-0.224323,0.072866,-0.698575
27751,,4.088021,1.991044,8.826828,0.000939,0.014809,-0.022682,0.604492,-0.181396,0.665283,-0.675556,-0.224305,0.072851,-0.698573
27752,,4.075956,2.012146,8.836092,0.002180,0.007187,-0.019715,0.608887,-0.181152,0.660889,-0.675550,-0.224321,0.072858,-0.698573
27753,,4.049405,1.993838,8.849943,0.001379,0.012966,-0.023050,0.602539,-0.188232,0.665527,-0.675559,-0.224310,0.072847,-0.698569
27754,,4.058833,2.022924,8.867159,0.000857,0.012696,-0.018622,0.608887,-0.185791,0.661133,-0.675552,-0.224302,0.072842,-0.698579
27755,,4.067943,2.003612,8.858862,-0.001372,0.013866,-0.020925,0.600098,-0.186035,0.661133,-0.675554,-0.224278,0.072839,-0.698585
27756,,4.080971,1.989867,8.909950,-0.000490,0.010189,-0.021656,0.604736,-0.188232,0.667725,-0.675558,-0.224275,0.072844,-0.698581
27757,,4.071959,1.979679,8.791529,0.002454,0.011319,-0.019871,0.604492,-0.179199,0.662842,-0.675552,-0.224273,0.072838,-0.698588
27758,,4.042061,1.998190,8.852318,-0.000490,0.010185,-0.021658,0.606689,-0.183594,0.660889,-0.675557,-0.224269,0.072843,-0.698584
27759,,4.087559,2.026556,8.847163,0.002453,0.011315,-0.019873,0.604736,-0.187988,0.661133,-0.675553,-0.224267,0.072837,-0.698589
27760,,4.071687,1.988039,8.852204,-0.000489,0.010180,-0.021660,0.604492,-0.181396,0.665283,-0.675558,-0.224264,0.072841,-0.698585
27761,,4.055991,1.997632,8.882851,-0.000932,0.012015,-0.021297,0.608887,-0.183594,0.663086,-0.675562,-0.224249,0.072843,-0.698586
27762,,4.083226,2.029010,8.848601,-0.001636,0.013717,-0.018718,0.606689,-0.183594,0.663086,-0.675559,-0.224228,0.072843,-0.698596
27763,,4.045737,1.982405,8.845736,0.004494,0.008101,-0.021487,0.602295,-0.181396,0.656494,-0.675555,-0.224245,0.072839,-0.698594
27764,,4.087709,1.999820,8.861856,0.004501,0.012106,-0.019425,0.604492,-0.179199,0.667236,-0.675547,-0.224251,0.072822,-0.698602
27765,,4.057553,2.024214,8.841803,0.002003,0.009133,-0.021578,0.604492,-0.181396,0.665283,-0.675551,-0.224255,0.072824,-0.698597
27766,,4.077719,1.985104,8.824523,0.001559,0.010967,-0.021215,0.606689,-0.183594,0.665283,-0.675552,-0.224256,0.072819,-0.698596
27767,,4.051263,2.014952,8.863932,0.002452,0.011300,-0.019881,0.602295,-0.179199,0.665039,-0.675548,-0.224254,0.072813,-0.698601
27768,,4.042586,1.999027,8.826265,0.001297,0.010831,-0.019001,0.606689,-0.183594,0.663086,-0.675542,-0.224253,0.072813,-0.698607
27769,,4.055819,1.985431,8.877242,-0.000044,0.008323,-0.022035,0.600342,-0.186035,0.663330,-0.675549,-0.224254,0.072823,-0.698599
27770,,4.068768,1.977424,8.847539,-0.001640,0.013698,-0.018728,0.604492,-0.181396,0.658691,-0.675546,-0.224233,0.072823,-0.698608
27771,,4.060187,2.009561,8.835474,0.001741,0.008990,-0.019368,0.604492,-0.181396,0.663086,-0.675539,-0.224237,0.072828,-0.698613
27772,,4.073299,1.996044,8.886493,0.002007,0.013126,-0.019522,0.602295,-0.183594,0.663086,-0.675535,-0.224231,0.072817,-0.698620
27773,,4.068231,1.991405,8.827482,0.000849,0.008650,-0.020705,0.606689,-0.181396,0.663086,-0.675536,-0.224233,0.072824,-0.698619
27774,,4.117415,1.977221,8.856233,0.000404,0.010484,-0.020342,0.608887,-0.183350,0.658691,-0.675535,-0.224231,0.072826,-0.698620
27775,,4.087197,2.001440,8.836198,0.002715,0.011415,-0.022105,0.602539,-0.186035,0.665283,-0.675536,-0.224231,0.072816,-0.698619
27776,,4.082188,1.991046,8.858002,-0.001197,0.011849,-0.019099,0.604492,-0.181396,0.663086,-0.675534,-0.224219,0.072820,-0.698625
27777,,4.051946,2.015056,8.838006,-0.000224,0.010271,-0.023897,0.611084,-0.181152,0.663086,-0.675546,-0.224213,0.072823,-0.698615
27778,,4.061309,1.995903,8.829654,0.000850,0.012648,-0.018647,0.604736,-0.187988,0.661133,-0.675540,-0.224204,0.072818,-0.698624
27779,,4.103048,2.012966,8.846026,-0.002089,0.011505,-0.020438,0.602539,-0.186035,0.665283,-0.675540,-0.224187,0.072826,-0.698629
27780,,4.054907,1.986089,8.851961,0.000404,0.010472,-0.020348,0.604492,-0.179199,0.667236,-0.675539,-0.224185,0.072828,-0.698630
27781,,4.067993,2.026503,8.847738,0.001742,0.008972,-0.019377,0.602539,-0.186035,0.663330,-0.675535,-0.224188,0.072833,-0.698632
27782,,4.059593,2.004803,8.890792,0.001296,0.010805,-0.019014,0.604736,-0.185791,0.665283,-0.675529,-0.224188,0.072832,-0.698639
27783,,4.076294,2.008301,8.839677,0.001743,0.008969,-0.019379,0.600098,-0.181396,0.667480,-0.675522,-0.224191,0.072837,-0.698644
27784,,4.103734,1.985984,8.860621,-0.001381,0.013796,-0.020961,0.606689,-0.181396,0.663086,-0.675526,-0.224172,0.072833,-0.698646
27785,,4.080590,1.978561,8.853224,-0.000934,0.011959,-0.021326,0.602295,-0.179199,0.665039,-0.675534,-0.224157,0.072836,-0.698643
27786,,4.072044,2.010625,8.841107,-0.000567,0.008030,-0.017619,0.608643,-0.178955,0.658447,-0.675524,-0.224159,0.072853,-0.698651
27787,,4.078222,1.980249,8.853938,0.003610,0.007723,-0.022844,0.602295,-0.183594,0.663086,-0.675530,-0.224175,0.072851,-0.698640
27788,,4.048173,2.004546,8.833727,0.002898,0.009427,-0.020264,0.604492,-0.183594,0.660889,-0.675526,-0.224185,0.072848,-0.698641
27789,,4.100893,2.001908,8.841212,0.000404,0.010454,-0.020358,0.604736,-0.188232,0.665527,-0.675525,-0.224180,0.072852,-0.698643
27790,,4.078116,1.994691,8.833589,0.002456,0.007250,-0.021966,0.600098,-0.181396,0.667480,-0.675526,-0.224197,0.072856,-0.698636
27791,,4.069687,2.027034,8.821333,0.000852,0.008615,-0.020723,0.602295,-0.183594,0.656738,-0.675527,-0.224198,0.072863,-0.698634
27792,,4.097305,2.004808,8.842218,-0.000487,0.010108,-0.021697,0.606689,-0.181152,0.660889,-0.675532,-0.224195,0.072868,-0.698630
27793,,4.074332,1.997426,8.834717,0.000844,0.012619,-0.018662,0.606689,-0.181396,0.667236,-0.675524,-0.224184,0.072864,-0.698641
27794,,4.051386,1.990176,8.827168,0.000492,0.008524,-0.026498,0.602295,-0.183594,0.663086,-0.675544,-0.224191,0.072866,-0.698619
27795,,4.060796,2.019525,8.844252,0.003788,0.009754,-0.018934,0.602295,-0.179199,0.669434,-0.675536,-0.224199,0.072861,-0.698625
27796,,4.077469,2.017489,8.873927,0.000668,0.010566,-0.022583,0.602295,-0.183594,0.660889,-0.675543,-0.224198,0.072860,-0.698619
27797,,4.069093,2.001510,8.836207,0.000853,0.008603,-0.020729,0.604492,-0.179199,0.660645,-0.675546,-0.224201,0.072868,-0.698614
27798,,4.067733,2.002443,8.836622,0.001107,0.012735,-0.020886,0.602295,-0.181396,0.660889,-0.675547,-0.224193,0.072859,-0.698616
27799,,4.084068,2.000356,8.866473,0.000922,0.014693,-0.022743,0.604492,-0.183594,0.663086,-0.675558,-0.224176,0.072844,-0.698613
27800,,4.061131,1.993104,8.858908,0.002194,0.007104,-0.019758,0.604492,-0.185791,0.663330,-0.675552,-0.224192,0.072852,-0.698613
27801,,4.081527,2.002227,8.867221,-0.000753,0.009961,-0.019490,0.597900,-0.181641,0.660889,-0.675548,-0.224184,0.072861,-0.698618
27802,,4.073142,2.034512,8.854913,0.003361,0.003560,-0.022703,0.604248,-0.176758,0.662842,-0.675550,-0.224217,0.072874,-0.698605
27803,,4.061448,2.007365,8.838396,0.001557,0.010891,-0.021254,0.606689,-0.181396,0.663086,-0.675556,-0.224214,0.072871,-0.698600
27804,,4.078002,2.005393,8.868127,0.002712,0.011356,-0.022136,0.604736,-0.185791,0.665283,-0.675559,-0.224218,0.072860,-0.698597
27805,,4.091082,1.997814,8.838425,0.002446,0.011228,-0.019919,0.602295,-0.183594,0.660889,-0.675554,-0.224216,0.072854,-0.698603
27806,,4.071653,1.996107,8.890284,0.000402,0.010417,-0.020376,0.604492,-0.181396,0.663086,-0.675554,-0.224215,0.072856,-0.698604
27807,,4.063351,1.980131,8.852555,0.002898,0.009392,-0.020283,0.606689,-0.183594,0.667480,-0.675550,-0.224221,0.072854,-0.698605
27808,,4.054680,2.012388,8.840361,-0.000487,0.010070,-0.021717,0.606689,-0.183594,0.663086,-0.675555,-0.224218,0.072859,-0.698601
27809,,4.078556,2.033005,8.827347,0.004239,0.007898,-0.019309,0.604492,-0.181396,0.667236,-0.675545,-0.224235,0.072858,-0.698605
27810,,4.052293,2.014326,8.841014,-0.000754,0.009941,-0.019500,0.602295,-0.183594,0.665283,-0.675543,-0.224230,0.072867,-0.698608
27811,,4.083574,2.003660,8.840573,0.004505,0.008019,-0.021529,0.602295,-0.181396,0.658691,-0.675543,-0.224247,0.072863,-0.698603
27812,,4.082387,2.004829,8.840856,0.002009,0.009039,-0.021626,0.604492,-0.181396,0.658691,-0.675545,-0.224256,0.072863,-0.698598
27813,,4.081107,2.005793,8.841228,0.000401,0.010402,-0.020384,0.604492,-0.183594,0.658691,-0.675544,-0.224252,0.072866,-0.698600
27814,,4.079778,2.006660,8.841645,0.000401,0.010400,-0.020385,0.604492,-0.181396,0.660889,-0.675544,-0.224250,0.072868,-0.698601
27815,,4.064383,1.967681,8.846675,-0.003518,0.010828,-0.017382,0.606689,-0.178955,0.665039,-0.675536,-0.224230,0.072887,-0.698613
27816,,4.095078,2.005166,8.871869,0.004320,0.009967,-0.023391,0.604492,-0.183594,0.660889,-0.675542,-0.224244,0.072873,-0.698604
27817,,4.043164,2.020759,8.843725,-0.001663,0.013591,-0.018784,0.604492,-0.183594,0.665283,-0.675540,-0.224220,0.072875,-0.698613
27818,,4.074229,2.010056,8.843432,0.004053,0.009840,-0.021174,0.606689,-0.181396,0.665039,-0.675538,-0.224233,0.072865,-0.698612
27819,,4.072965,2.011196,8.843755,0.002010,0.009026,-0.021633,0.604492,-0.185791,0.663330,-0.675540,-0.224239,0.072866,-0.698608
27820,,4.082546,1.992140,8.835458,-0.001396,0.013707,-0.021008,0.602295,-0.181396,0.663086,-0.675545,-0.224220,0.072863,-0.698609
27821,,4.055315,2.021446,8.874883,-0.001396,0.013704,-0.021009,0.600342,-0.186035,0.663330,-0.675550,-0.224197,0.072860,-0.698612
27822,,4.071899,2.024910,8.824010,-0.000941,0.011870,-0.021372,0.604492,-0.181396,0.660889,-0.675555,-0.224186,0.072861,-0.698611
27823,,4.084725,2.011541,8.875198,0.001369,0.012803,-0.023135,0.602295,-0.179199,0.667236,-0.675564,-0.224177,0.072849,-0.698606
27824,,4.098009,2.003962,8.845488,0.002200,0.007062,-0.019779,0.604492,-0.179199,0.667236,-0.675558,-0.224193,0.072857,-0.698606
27825,,4.050178,1.976925,8.851127,0.001368,0.012798,-0.023137,0.602295,-0.181396,0.663086,-0.675573,-0.224183,0.072847,-0.698596
27826,,4.062788,2.017569,8.846984,0.001744,0.008890,-0.019420,0.602295,-0.179199,0.669434,-0.675567,-0.224191,0.072851,-0.698599
27827,,4.072559,1.998594,8.838609,0.000669,0.010494,-0.022620,0.600098,-0.181396,0.667480,-0.675579,-0.224187,0.072851,-0.698589
27828,,4.060273,2.019587,8.847679,0.003355,0.007523,-0.020664,0.602295,-0.183594,0.667480,-0.675575,-0.224205,0.072853,-0.698586
27829,,4.077632,1.969393,8.851851,0.000401,0.010368,-0.020402,0.602295,-0.183594,0.660889,-0.675579,-0.224200,0.072856,-0.698584
27830,,4.068818,2.001710,8.839626,0.004940,0.010164,-0.019845,0.608887,-0.181152,0.660889,-0.675571,-0.224214,0.072844,-0.698588
27831,,4.067633,2.002889,8.839905,0.002470,0.007170,-0.022007,0.606689,-0.178955,0.667236,-0.675572,-0.224228,0.072849,-0.698583
27832,,4.087790,2.012325,8.848317,0.001098,0.012660,-0.020925,0.606689,-0.181396,0.663086,-0.675573,-0.224221,0.072840,-0.698584
27833,,4.057805,1.982292,8.883345,0.000509,0.008423,-0.026550,0.602295,-0.181396,0.665283,-0.675596,-0.224226,0.072843,-0.698561
27834,,4.074568,1.986153,8.832359,0.003138,0.013471,-0.020468,0.602295,-0.181396,0.665283,-0.675594,-0.224223,0.072825,-0.698566
27835,,4.065573,2.018392,8.820212,0.000400,0.010355,-0.020409,0.604736,-0.187988,0.663330,-0.675596,-0.224218,0.072829,-0.698564
27836,,4.057184,1.996675,8.863242,0.001127,0.008642,-0.022992,0.604492,-0.181396,0.663086,-0.675604,-0.224226,0.072832,-0.698554
27837,,4.080933,2.017552,8.850291,0.003168,0.009456,-0.022533,0.604492,-0.179199,0.667236,-0.675605,-0.224234,0.072825,-0.698551
27838,,4.058224,2.010248,8.842558,0.002013,0.008986,-0.021654,0.602539,-0.186035,0.663330,-0.675607,-0.224244,0.072825,-0.698546
27839,,4.068029,1.991380,8.834196,0.002440,0.011162,-0.019954,0.604492,-0.183594,0.665283,-0.675604,-0.224242,0.072819,-0.698549
27840,,4.040872,2.021040,8.873336,0.004323,0.009917,-0.023417,0.604492,-0.185791,0.658936,-0.675610,-0.224257,0.072806,-0.698541
27841,,4.065423,1.993454,8.834928,-0.003065,0.008937,-0.017774,0.604492,-0.183594,0.667480,-0.675601,-0.224245,0.072828,-0.698551
27842,,4.089153,2.013970,8.822080,0.001554,0.010808,-0.021298,0.602295,-0.179199,0.665039,-0.675603,-0.224246,0.072824,-0.698549
27843,,4.098780,1.994953,8.813856,-0.000520,0.013997,-0.019698,0.604736,-0.187988,0.663330,-0.675606,-0.224225,0.072819,-0.698554
27844,,4.071426,2.024132,8.853167,-0.001215,0.011697,-0.019178,0.602295,-0.183594,0.663086,-0.675603,-0.224213,0.072824,-0.698560
27845,,4.098837,2.002039,8.874434,-0.001865,0.015473,-0.020681,0.602295,-0.181396,0.663086,-0.675606,-0.224183,0.072817,-0.698568
27846,,4.071617,2.036753,8.833095,-0.003020,0.015002,-0.019802,0.602295,-0.183594,0.658691,-0.675609,-0.224153,0.072816,-0.698574
27847,,4.045138,2.017573,8.846885,-0.000754,0.009862,-0.019541,0.604492,-0.179199,0.667236,-0.675607,-0.224146,0.072826,-0.698578
27848,,4.076256,2.007135,8.846699,0.003405,0.013562,-0.022705,0.604492,-0.183594,0.663086,-0.675612,-0.224145,0.072804,-0.698575
27849,,4.042259,2.019625,8.847733,0.001746,0.008847,-0.019442,0.604492,-0.181396,0.663086,-0.675608,-0.224149,0.072809,-0.698577
27850,,4.077285,2.020372,8.826109,-0.000564,0.007909,-0.017682,0.604492,-0.183594,0.669678,-0.675599,-0.224152,0.072826,-0.698583
27851,,4.051050,2.001268,8.839762,-0.000945,0.011800,-0.021409,0.604492,-0.185791,0.658936,-0.675606,-0.224138,0.072828,-0.698581
27852,,4.081400,2.038933,8.865065,0.000591,0.008374,-0.018564,0.602295,-0.181396,0.660889,-0.675598,-0.224143,0.072838,-0.698586
27853,,4.045409,1.997065,8.781135,-0.000603,0.011912,-0.015623,0.602295,-0.181396,0.667236,-0.675581,-0.224129,0.072844,-0.698606
27854,,4.079829,1.991964,8.840428,-0.001909,0.009380,-0.018668,0.602539,-0.186035,0.665283,-0.675576,-0.224122,0.072860,-0.698611
27855,,4.070933,2.023914,8.828229,0.000401,0.010315,-0.020430,0.604492,-0.183594,0.663086,-0.675578,-0.224117,0.072863,-0.698611
27856,,4.102006,2.013269,8.828162,-0.002141,0.015330,-0.018472,0.606445,-0.176758,0.660645,-0.675575,-0.224089,0.072860,-0.698623
27857,,4.071842,1.982655,8.863332,-0.001678,0.013499,-0.018833,0.604492,-0.181396,0.660889,-0.675574,-0.224066,0.072861,-0.698631
27858,,4.073850,1.994352,8.842647,-0.008256,0.012865,-0.019861,0.606689,-0.178955,0.662842,-0.675583,-0.224027,0.072886,-0.698633
27859,,4.083559,1.974933,8.834535,-0.000060,0.012136,-0.020074,0.600098,-0.181396,0.665283,-0.675584,-0.224015,0.072885,-0.698636
27860,,4.070827,1.995501,8.843780,-0.002562,0.013142,-0.020179,0.604492,-0.183594,0.656738,-0.675587,-0.223993,0.072889,-0.698639
27861,,4.090724,2.004666,8.852437,-0.001215,0.011664,-0.019196,0.606689,-0.181396,0.663086,-0.675585,-0.223979,0.072894,-0.698645
27862,,4.085748,1.993978,8.874258,-0.002098,0.011309,-0.020540,0.604492,-0.183594,0.667480,-0.675588,-0.223965,0.072902,-0.698645
27863,,4.081307,1.988948,8.815308,-0.002098,0.011307,-0.020541,0.604492,-0.181396,0.660889,-0.675592,-0.223949,0.072910,-0.698646
27864,,4.061435,1.986781,8.867182,-0.001407,0.013601,-0.021063,0.604492,-0.181396,0.665283,-0.675597,-0.223931,0.072907,-0.698647
27865,,4.073428,2.027238,8.863312,-0.001871,0.015426,-0.020706,0.604492,-0.183594,0.665283,-0.675604,-0.223901,0.072900,-0.698651
27866,,4.061730,1.999435,8.847073,-0.003253,0.010832,-0.019665,0.602539,-0.186035,0.663330,-0.675605,-0.223885,0.072915,-0.698653
27867,,4.063880,2.011455,8.826258,-0.000060,0.012121,-0.020082,0.604736,-0.185791,0.665283,-0.675604,-0.223873,0.072913,-0.698659
27868,,4.069979,1.980927,8.839458,-0.003027,0.014950,-0.019829,0.602295,-0.181396,0.667236,-0.675607,-0.223844,0.072913,-0.698665
27869,,4.045860,2.021281,8.857425,-0.000060,0.012117,-0.020084,0.602295,-0.183594,0.663086,-0.675608,-0.223831,0.072912,-0.698668
27870,,4.088281,1.990982,8.848674,-0.000060,0.012115,-0.020085,0.600098,-0.183838,0.663086,-0.675608,-0.223822,0.072910,-0.698672
27871,,4.057738,2.014435,8.828403,0.000822,0.012466,-0.018743,0.604492,-0.181396,0.665283,-0.675603,-0.223811,0.072906,-0.698681
27872,,4.070578,2.000898,8.879670,-0.003525,0.010703,-0.017448,0.604492,-0.181396,0.665283,-0.675596,-0.223794,0.072924,-0.698690
27873,,4.059174,1.972966,8.863336,-0.001488,0.011525,-0.016985,0.604736,-0.185791,0.667480,-0.675589,-0.223777,0.072934,-0.698701
27874,,4.092851,2.021971,8.867469,-0.000749,0.009812,-0.019568,0.604492,-0.183594,0.665283,-0.675587,-0.223774,0.072943,-0.698704
27875,,4.059950,1.985596,8.843022,-0.003910,0.014580,-0.021182,0.606689,-0.183594,0.660889,-0.675596,-0.223740,0.072945,-0.698706
27876,,4.069504,1.966379,8.835001,-0.000992,0.015756,-0.019374,0.602295,-0.183594,0.663086,-0.675595,-0.223715,0.072936,-0.698716
27877,,4.063058,2.003993,8.882416,-0.000941,0.011746,-0.021437,0.604492,-0.183594,0.663086,-0.675599,-0.223702,0.072937,-0.698716
27878,,4.072875,1.984795,8.874275,-0.003718,0.012632,-0.019321,0.602539,-0.186035,0.665283,-0.675600,-0.223678,0.072947,-0.698721
27879,,4.082004,2.019741,8.810890,0.002525,0.013150,-0.024078,0.600342,-0.190430,0.661377,-0.675610,-0.223672,0.072928,-0.698715
27880,,4.055572,2.000700,8.824521,-0.001215,0.011625,-0.019216,0.606689,-0.185791,0.665283,-0.675608,-0.223661,0.072934,-0.698720
27881,,4.075721,2.010092,8.833058,0.001949,0.006858,-0.017602,0.604736,-0.185791,0.665283,-0.675590,-0.223673,0.072945,-0.698733
27882,,4.067322,1.988100,8.876082,-0.001683,0.013447,-0.018860,0.604248,-0.178955,0.658691,-0.675588,-0.223653,0.072946,-0.698741
27883,,4.072956,2.011729,8.833961,0.002718,0.011203,-0.022216,0.606689,-0.183594,0.663086,-0.675591,-0.223655,0.072935,-0.698738
27884,,4.064397,1.989878,8.877023,-0.002096,0.011261,-0.020566,0.608887,-0.185791,0.663086,-0.675595,-0.223642,0.072943,-0.698738
27885,,4.087876,2.010546,8.864396,-0.001215,0.011615,-0.019222,0.604492,-0.183594,0.669678,-0.675589,-0.223628,0.072947,-0.698748
27886,,4.043839,1.994121,8.848485,0.001563,0.010727,-0.021340,0.604492,-0.181396,0.660889,-0.675591,-0.223630,0.072943,-0.698746
27887,,4.063736,2.003653,8.857117,-0.000940,0.011724,-0.021449,0.606689,-0.183594,0.665283,-0.675598,-0.223616,0.072945,-0.698744
27888,,4.091339,1.981992,8.878430,0.001095,0.012548,-0.020984,0.600098,-0.179199,0.662842,-0.675599,-0.223610,0.072937,-0.698745
27889,,4.060885,2.005470,8.858013,0.001757,0.008783,-0.019476,0.604492,-0.185791,0.663330,-0.675597,-0.223615,0.072942,-0.698745
27890,,4.074504,1.997925,8.828451,-0.000940,0.011717,-0.021453,0.606689,-0.183594,0.663086,-0.675602,-0.223605,0.072943,-0.698744
27891,,4.058141,2.007245,8.858868,0.002443,0.011074,-0.019999,0.602295,-0.181396,0.656494,-0.675596,-0.223605,0.072936,-0.698750
27892,,4.068065,1.988435,8.850649,0.000215,0.012182,-0.022335,0.604492,-0.185791,0.663330,-0.675603,-0.223597,0.072930,-0.698746
27893,,4.077924,1.969589,8.842477,0.001094,0.012537,-0.020990,0.602295,-0.181396,0.665283,-0.675603,-0.223589,0.072922,-0.698750
27894,,4.086465,1.999051,8.859745,0.002034,0.008886,-0.021706,0.602295,-0.181396,0.663086,-0.675605,-0.223598,0.072922,-0.698745
27895,,4.067390,2.002710,8.830646,0.000818,0.012421,-0.018767,0.606689,-0.181152,0.660889,-0.675602,-0.223587,0.072919,-0.698751
27896,,4.047408,2.000678,8.882356,0.000082,0.010101,-0.026270,0.602295,-0.181396,0.660889,-0.675623,-0.223588,0.072917,-0.698731
27897,,4.090152,1.970961,8.873610,0.004069,0.009708,-0.021242,0.608887,-0.183594,0.665283,-0.675622,-0.223599,0.072907,-0.698730
27898,,4.051800,2.025816,8.840468,0.002116,0.010924,-0.025806,0.602295,-0.183594,0.660889,-0.675639,-0.223603,0.072896,-0.698713
27899,,4.058213,1.995793,8.853516,0.002442,0.011058,-0.020008,0.604492,-0.181396,0.667236,-0.675634,-0.223604,0.072889,-0.698719
27900,,4.060481,2.008221,8.832574,0.002035,0.008873,-0.021713,0.606689,-0.185791,0.661133,-0.675635,-0.223614,0.072889,-0.698714
27901,,4.051944,1.986527,8.875577,0.002247,0.012988,-0.021880,0.604736,-0.185791,0.665283,-0.675638,-0.223607,0.072874,-0.698715
27902,,4.057473,2.010215,8.833503,-0.000535,0.013870,-0.019765,0.606689,-0.181152,0.660889,-0.675638,-0.223590,0.072869,-0.698721
27903,,4.063874,1.979880,8.846646,0.000409,0.010220,-0.020480,0.604492,-0.179199,0.662842,-0.675636,-0.223587,0.072871,-0.698723
27904,,4.072390,2.009237,8.863920,0.001287,0.010578,-0.019134,0.602295,-0.179199,0.662842,-0.675631,-0.223587,0.072871,-0.698729
27905,,4.046161,1.989970,8.877444,-0.000941,0.011680,-0.021473,0.600098,-0.183838,0.663086,-0.675641,-0.223574,0.072873,-0.698723
27906,,4.069483,2.010761,8.864909,-0.003447,0.012670,-0.021585,0.606445,-0.178955,0.660645,-0.675650,-0.223552,0.072880,-0.698720
27907,,4.079412,1.991950,8.856756,0.004752,0.011983,-0.021775,0.606689,-0.183594,0.665283,-0.675652,-0.223558,0.072860,-0.698719
27908,,4.081499,2.004401,8.835901,-0.000064,0.012033,-0.020129,0.606689,-0.183594,0.663086,-0.675651,-0.223549,0.072859,-0.698722
27909,,4.076509,1.993936,8.857646,0.002442,0.011039,-0.020018,0.600342,-0.188232,0.665527,-0.675646,-0.223549,0.072852,-0.698728
27910,,4.075137,1.994946,8.858050,0.000688,0.010315,-0.022715,0.602295,-0.179199,0.658691,-0.675654,-0.223550,0.072851,-0.698721
27911,,4.091373,1.993276,8.888034,0.001091,0.012496,-0.021012,0.602295,-0.185791,0.658936,-0.675656,-0.223541,0.072843,-0.698722
27912,,4.039483,2.007938,8.859333,0.001843,0.010780,-0.023597,0.602295,-0.183594,0.669678,-0.675665,-0.223544,0.072835,-0.698713
27913,,4.070969,1.998076,8.859261,0.002513,0.007024,-0.022084,0.600098,-0.183838,0.669678,-0.675666,-0.223559,0.072840,-0.698706
27914,,4.051922,2.001711,8.830120,0.000616,0.014312,-0.020659,0.602295,-0.181396,0.663086,-0.675668,-0.223545,0.072828,-0.698711
27915,,4.079539,1.980373,8.851519,0.002720,0.011135,-0.022252,0.606689,-0.183594,0.667480,-0.675676,-0.223546,0.072818,-0.698704
27916,,4.045405,1.992397,8.852299,0.000688,0.010300,-0.022723,0.606689,-0.185791,0.661133,-0.675683,-0.223546,0.072817,-0.698697
27917,,4.072402,2.024964,8.818359,0.002442,0.011023,-0.020027,0.602051,-0.177002,0.669189,-0.675676,-0.223547,0.072809,-0.698704
27918,,4.087028,1.963706,8.844064,0.000885,0.008366,-0.020854,0.606445,-0.178955,0.656494,-0.675676,-0.223555,0.072816,-0.698701
27919,,4.054886,2.035211,8.848960,0.001762,0.008727,-0.019506,0.602295,-0.179199,0.665039,-0.675677,-0.223560,0.072822,-0.698698
27920,,4.059690,1.945554,8.857826,0.003399,0.013417,-0.022781,0.606689,-0.181396,0.663086,-0.675682,-0.223559,0.072801,-0.698695
27921,,4.030693,2.028505,8.841578,-0.000942,0.011640,-0.021494,0.602295,-0.183594,0.660889,-0.675691,-0.223547,0.072803,-0.698690
27922,,4.062767,1.964387,8.897021,-0.001697,0.013353,-0.018911,0.606689,-0.181152,0.660889,-0.675689,-0.223527,0.072804,-0.698698
27923,,4.078190,2.016551,8.871760,0.002918,0.009190,-0.020389,0.604492,-0.181396,0.665283,-0.675685,-0.223536,0.072801,-0.698700
27924,,4.078763,1.969367,8.846621,0.001565,0.010646,-0.021383,0.602539,-0.186035,0.663330,-0.675686,-0.223538,0.072797,-0.698698
27925,,4.054378,2.009825,8.864210,0.002042,0.008822,-0.021740,0.602539,-0.186035,0.667480,-0.675688,-0.223545,0.072797,-0.698694
27926,,4.085875,1.999903,8.864230,0.000410,0.010171,-0.020507,0.604492,-0.183594,0.660889,-0.675688,-0.223545,0.072800,-0.698694
27927,,4.051922,2.011783,8.864889,0.002519,0.006997,-0.022098,0.600098,-0.183838,0.667480,-0.675689,-0.223560,0.072804,-0.698688
27928,,4.065710,2.004403,8.835388,-0.001420,0.013445,-0.021148,0.608887,-0.181152,0.665039,-0.675694,-0.223542,0.072802,-0.698689
27929,,4.085466,2.014216,8.844109,0.004073,0.009649,-0.021274,0.604492,-0.181396,0.665283,-0.675694,-0.223553,0.072793,-0.698686
27930,,4.062896,2.006390,8.836231,-0.000943,0.011618,-0.021506,0.602295,-0.179199,0.662842,-0.675700,-0.223543,0.072794,-0.698684
27931,,4.057931,1.996078,8.857922,0.006103,0.010481,-0.020805,0.602295,-0.183594,0.665283,-0.675699,-0.223558,0.072777,-0.698682
27932,,4.077874,2.006081,8.866518,0.000888,0.008337,-0.020869,0.606689,-0.183594,0.660889,-0.675699,-0.223565,0.072784,-0.698679
27933,,4.091607,1.998715,8.837068,0.001483,0.014633,-0.019334,0.604492,-0.181396,0.669434,-0.675694,-0.223550,0.072768,-0.698690
27934,,4.057269,2.010594,8.837861,0.003595,0.011460,-0.020924,0.602295,-0.179199,0.660645,-0.675692,-0.223556,0.072755,-0.698692
27935,,4.055791,2.011653,8.838299,0.001087,0.012442,-0.021041,0.602539,-0.188232,0.665527,-0.675698,-0.223547,0.072748,-0.698689
27936,,4.080079,1.979040,8.880980,0.002045,0.008799,-0.021752,0.604492,-0.181396,0.660889,-0.675700,-0.223557,0.072749,-0.698684
27937,,4.082303,1.991395,8.860091,0.000806,0.012333,-0.018814,0.606689,-0.181152,0.660889,-0.675692,-0.223547,0.072744,-0.698695
27938,,4.036435,2.022696,8.869469,-0.000943,0.011599,-0.021516,0.600098,-0.181396,0.658691,-0.675698,-0.223537,0.072746,-0.698693
27939,,4.061710,1.995700,8.831473,0.003990,0.013637,-0.019224,0.604492,-0.183594,0.665283,-0.675691,-0.223534,0.072725,-0.698703
27940,,4.081434,2.005585,8.840215,0.000411,0.010140,-0.020523,0.600342,-0.186035,0.663330,-0.675691,-0.223534,0.072729,-0.698703
27941,,4.055342,1.986082,8.853649,-0.000350,0.011855,-0.017940,0.606689,-0.181152,0.658691,-0.675682,-0.223521,0.072731,-0.698715
27942,,4.055399,2.046416,8.858328,-0.000350,0.011853,-0.017941,0.604492,-0.181396,0.663086,-0.675675,-0.223511,0.072733,-0.698725
27943,,4.048830,1.976169,8.875953,0.000606,0.014245,-0.020696,0.604492,-0.179199,0.665039,-0.675676,-0.223495,0.072721,-0.698730
27944,,4.068652,1.986017,8.884664,0.002247,0.006861,-0.019885,0.604492,-0.185791,0.661133,-0.675671,-0.223512,0.072730,-0.698729
27945,,4.049825,1.989441,8.855420,0.000805,0.012318,-0.018823,0.604492,-0.181396,0.660889,-0.675665,-0.223502,0.072725,-0.698738
27946,,4.081381,1.979439,8.855558,-0.000543,0.007735,-0.017775,0.604492,-0.183594,0.660889,-0.675656,-0.223506,0.072743,-0.698744
27947,,4.068434,1.999726,8.864593,-0.003451,0.012559,-0.021646,0.606445,-0.176758,0.662842,-0.675664,-0.223482,0.072749,-0.698743
27948,,4.070496,2.011829,8.843838,-0.000069,0.011945,-0.020177,0.606689,-0.183594,0.658691,-0.675663,-0.223474,0.072748,-0.698746
27949,,4.065541,2.001275,8.865570,0.001286,0.010492,-0.019181,0.600098,-0.179199,0.662842,-0.675659,-0.223473,0.072748,-0.698751
27950,,4.061846,1.996301,8.806538,-0.001224,0.011470,-0.019301,0.606934,-0.187988,0.667725,-0.675657,-0.223461,0.072754,-0.698756
27951,,4.062776,2.002747,8.866505,-0.000351,0.011836,-0.017950,0.606689,-0.185791,0.665283,-0.675650,-0.223449,0.072756,-0.698767
27952,,4.069425,1.972513,8.879702,0.001087,0.012408,-0.021060,0.602295,-0.181396,0.663086,-0.675651,-0.223443,0.072748,-0.698768
27953,,4.065519,1.967677,8.820749,0.000604,0.014224,-0.020708,0.604492,-0.181396,0.665283,-0.675653,-0.223426,0.072736,-0.698773
27954,,4.052332,1.988026,8.829851,-0.003251,0.010621,-0.019778,0.604492,-0.183594,0.660889,-0.675654,-0.223412,0.072751,-0.698774
27955,,4.064141,2.028843,8.825838,0.002535,0.006946,-0.022125,0.600098,-0.186035,0.661133,-0.675657,-0.223428,0.072755,-0.698767
27956,,4.034616,1.998035,8.860426,-0.000069,0.011928,-0.020186,0.602295,-0.181396,0.665283,-0.675657,-0.223419,0.072754,-0.698770
27957,,4.054355,2.007837,8.869208,0.001286,0.010477,-0.019189,0.606689,-0.185791,0.661133,-0.675652,-0.223417,0.072754,-0.698775
27958,,4.077703,2.029160,8.856667,0.001569,0.010577,-0.021421,0.604248,-0.178955,0.658691,-0.675654,-0.223419,0.072751,-0.698773
27959,,4.060050,1.978787,8.882598,0.003609,0.005389,-0.018899,0.600098,-0.181396,0.665283,-0.675640,-0.223444,0.072759,-0.698777
27960,,4.050825,2.010777,8.870155,-0.002202,0.008991,-0.024602,0.604492,-0.183594,0.660889,-0.675657,-0.223440,0.072771,-0.698761
27961,,4.061376,1.992112,8.861911,0.002537,0.006934,-0.022131,0.602295,-0.183594,0.667480,-0.675661,-0.223456,0.072775,-0.698751
27962,,4.073017,2.033001,8.857943,-0.001710,0.013262,-0.018961,0.602295,-0.183594,0.665283,-0.675659,-0.223437,0.072777,-0.698759
27963,,4.073912,1.985603,8.832954,0.002440,0.010938,-0.020073,0.604736,-0.185791,0.665283,-0.675657,-0.223438,0.072771,-0.698761
27964,,4.047838,1.966101,8.846324,-0.001814,0.011169,-0.022901,0.608887,-0.183594,0.665283,-0.675668,-0.223427,0.072775,-0.698754
27965,,4.044020,2.015281,8.872238,0.002724,0.011034,-0.022307,0.604492,-0.185791,0.658936,-0.675670,-0.223429,0.072764,-0.698753
27966,,4.075400,2.005697,8.872480,0.000213,0.012007,-0.022430,0.602295,-0.179199,0.665039,-0.675677,-0.223422,0.072759,-0.698748
27967,,4.068211,1.989419,8.834723,0.001285,0.010458,-0.019199,0.602295,-0.181396,0.665283,-0.675672,-0.223421,0.072759,-0.698754
27968,,4.055148,2.009902,8.843678,-0.000457,0.009713,-0.021907,0.606445,-0.178955,0.656494,-0.675677,-0.223420,0.072765,-0.698748
27969,,4.071293,2.008331,8.873769,0.000799,0.012272,-0.018848,0.602295,-0.183594,0.669678,-0.675674,-0.223410,0.072761,-0.698755
27970,,4.060654,1.980833,8.857203,0.004851,0.007860,-0.023897,0.604492,-0.185791,0.663330,-0.675680,-0.223434,0.072753,-0.698742
27971,,4.101595,1.999995,8.874258,-0.000457,0.009706,-0.021910,0.604248,-0.176758,0.665039,-0.675686,-0.223430,0.072758,-0.698738
27972,,4.061659,1.994309,8.836635,0.001569,0.010548,-0.021437,0.600098,-0.181396,0.663086,-0.675688,-0.223432,0.072755,-0.698735
27973,,4.060255,1.995209,8.837076,-0.000943,0.011518,-0.021560,0.606445,-0.178955,0.660645,-0.675700,-0.223420,0.072757,-0.698727
27974,,4.058807,1.996001,8.837563,-0.000943,0.011516,-0.021561,0.604736,-0.185791,0.667480,-0.675706,-0.223410,0.072759,-0.698724
27975,,4.078330,2.005859,8.846471,-0.001145,0.013429,-0.023442,0.602539,-0.186035,0.667480,-0.675719,-0.223392,0.072753,-0.698718
27976,,4.067688,1.978053,8.829992,-0.000253,0.007780,-0.020037,0.604248,-0.178955,0.658691,-0.675717,-0.223397,0.072767,-0.698717
27977,,4.072161,1.996183,8.868554,0.003309,0.011285,-0.018734,0.602295,-0.183594,0.663086,-0.675709,-0.223400,0.072757,-0.698725
27978,,4.037956,2.007861,8.869056,0.004082,0.009564,-0.021320,0.600342,-0.186035,0.665527,-0.675707,-0.223414,0.072748,-0.698723
27979,,4.073036,2.009764,8.848023,-0.000943,0.011504,-0.021568,0.600098,-0.183838,0.665283,-0.675713,-0.223402,0.072750,-0.698721
27980,,4.068099,1.999161,8.869747,-0.000455,0.009686,-0.021922,0.606934,-0.187988,0.663330,-0.675718,-0.223400,0.072756,-0.698716
27981,,4.045693,1.990861,8.861799,-0.001229,0.011402,-0.019337,0.606689,-0.181396,0.667236,-0.675713,-0.223387,0.072760,-0.698725
27982,,4.068930,2.012209,8.849357,0.002439,0.010902,-0.020093,0.602295,-0.179199,0.662842,-0.675709,-0.223391,0.072754,-0.698728
27983,,4.067638,2.013271,8.849709,0.002928,0.009084,-0.020446,0.604492,-0.183594,0.669678,-0.675711,-0.223400,0.072752,-0.698724
27984,,4.062671,2.002733,8.871429,-0.003170,0.012559,-0.023932,0.604492,-0.181396,0.663086,-0.675727,-0.223380,0.072756,-0.698714
27985,,4.073035,1.984038,8.863382,0.003308,0.011271,-0.018741,0.604492,-0.183594,0.665283,-0.675721,-0.223382,0.072747,-0.698720
27986,,4.036766,1.989625,8.804419,-0.000740,0.009575,-0.019695,0.604492,-0.183594,0.663086,-0.675719,-0.223379,0.072756,-0.698722
27987,,4.052878,1.988111,8.834542,0.000212,0.011958,-0.022456,0.606689,-0.183594,0.660889,-0.675726,-0.223370,0.072751,-0.698719
27988,,4.072564,1.998203,8.843347,0.002060,0.008700,-0.021807,0.604736,-0.185791,0.665283,-0.675728,-0.223381,0.072752,-0.698713
27989,,4.046685,1.978712,8.856567,0.001570,0.010513,-0.021456,0.604492,-0.179199,0.662842,-0.675726,-0.223382,0.072747,-0.698715
27990,,4.069923,2.000256,8.844098,0.001570,0.010511,-0.021457,0.608887,-0.183350,0.656494,-0.675728,-0.223384,0.072744,-0.698713
27991,,4.068431,2.001366,8.844533,0.002522,0.012892,-0.024219,0.600098,-0.183838,0.663086,-0.675738,-0.223381,0.072725,-0.698706
27992,,4.063521,1.990911,8.866208,-0.001986,0.006994,-0.022765,0.602295,-0.179199,0.660645,-0.675747,-0.223385,0.072744,-0.698694
27993,,4.077639,1.983751,8.836812,0.004838,0.013921,-0.017920,0.600098,-0.181396,0.665283,-0.675737,-0.223383,0.072722,-0.698706
27994,,4.064331,2.004448,8.845721,0.000613,0.008029,-0.026759,0.602539,-0.186035,0.663330,-0.675758,-0.223392,0.072724,-0.698683
27995,,4.059465,1.994100,8.867349,0.002438,0.010877,-0.020107,0.598145,-0.186035,0.663330,-0.675756,-0.223393,0.072718,-0.698686
27996,,4.061633,2.006626,8.846466,0.002725,0.010970,-0.022343,0.604492,-0.183594,0.665283,-0.675760,-0.223398,0.072708,-0.698681
27997,,4.060350,2.007666,8.846819,0.000907,0.008208,-0.020939,0.602295,-0.183594,0.663086,-0.675759,-0.223404,0.072714,-0.698679
27998,,4.092125,1.998213,8.847052,0.001774,0.008584,-0.019584,0.606445,-0.178955,0.660645,-0.675754,-0.223413,0.072719,-0.698681
27999,,4.054280,1.998191,8.868800,0.002233,0.012778,-0.021995,0.602295,-0.183594,0.667480,-0.675759,-0.223408,0.072705,-0.698679
28000,,4.068323,1.991088,8.839455,0.001282,0.010394,-0.019234,0.604492,-0.183594,0.665283,-0.675753,-0.223409,0.072705,-0.698684
28001,,4.084548,1.989709,8.869521,0.000041,0.007822,-0.022299,0.600098,-0.183838,0.667480,-0.675760,-0.223414,0.072715,-0.698675
28002,,4.065771,1.992735,8.840258,-0.003460,0.012413,-0.021725,0.600098,-0.181396,0.665283,-0.675770,-0.223393,0.072722,-0.698672
28003,,4.064370,1.993649,8.840696,0.004952,0.009898,-0.019989,0.606689,-0.181396,0.667236,-0.675767,-0.223405,0.072711,-0.698672
28004,,4.080598,1.992469,8.870719,0.000908,0.008194,-0.020946,0.606689,-0.185791,0.663330,-0.675767,-0.223413,0.072719,-0.698668
28005,,4.032603,2.017537,8.820101,0.002930,0.009043,-0.020469,0.604492,-0.183594,0.667480,-0.675762,-0.223423,0.072715,-0.698670
28006,,4.078199,1.994390,8.871391,-0.001607,0.009153,-0.021076,0.600098,-0.183838,0.663086,-0.675766,-0.223419,0.072728,-0.698666
28007,,4.059475,1.997515,8.842073,0.001570,0.010475,-0.021477,0.604492,-0.183594,0.663086,-0.675769,-0.223419,0.072725,-0.698664
28008,,4.079282,2.007712,8.850832,0.002269,0.006752,-0.019944,0.604492,-0.183594,0.660889,-0.675764,-0.223437,0.072733,-0.698662
28009,,4.066185,2.028324,8.859596,0.002352,0.008750,-0.024066,0.606934,-0.185791,0.671875,-0.675771,-0.223447,0.072729,-0.698652
28010,,4.100700,1.970706,8.834556,-0.001729,0.013151,-0.019022,0.602539,-0.186035,0.667480,-0.675769,-0.223428,0.072731,-0.698660
28011,,4.054339,2.001516,8.843524,0.005240,0.009978,-0.022232,0.602295,-0.183594,0.665283,-0.675769,-0.223443,0.072715,-0.698657
28012,,4.086030,1.992435,8.843795,0.002065,0.008650,-0.021834,0.595459,-0.177002,0.662842,-0.675771,-0.223453,0.072715,-0.698652
28013,,4.057189,2.021118,8.882393,0.003590,0.011315,-0.021005,0.604492,-0.183594,0.663086,-0.675777,-0.223457,0.072704,-0.698646
28014,,4.083381,1.994754,8.844496,0.003220,0.009119,-0.022714,0.602539,-0.188232,0.658936,-0.675781,-0.223470,0.072698,-0.698639
28015,,4.066632,2.003869,8.874564,0.000044,0.007791,-0.022316,0.600342,-0.186035,0.663330,-0.675781,-0.223476,0.072706,-0.698636
28016,,4.056307,1.975976,8.858059,-0.001442,0.013228,-0.021266,0.604492,-0.185791,0.661133,-0.675786,-0.223458,0.072704,-0.698637
28017,,4.067285,2.016926,8.854258,0.000784,0.012175,-0.018902,0.600098,-0.181396,0.665283,-0.675776,-0.223450,0.072699,-0.698650
28018,,4.056943,1.989109,8.837747,-0.000161,0.009689,-0.024206,0.602295,-0.181396,0.667236,-0.675790,-0.223450,0.072702,-0.698636
28019,,4.055492,1.990138,8.838181,0.002228,0.012735,-0.022020,0.604492,-0.183594,0.663086,-0.675800,-0.223444,0.072688,-0.698630
28020,,4.050559,1.979770,8.859841,0.002067,0.008634,-0.021843,0.604492,-0.183594,0.665283,-0.675802,-0.223455,0.072689,-0.698624
28021,,4.052837,1.992256,8.838922,0.001570,0.010445,-0.021494,0.604492,-0.185791,0.661133,-0.675803,-0.223456,0.072685,-0.698624
28022,,4.075905,2.013926,8.826564,0.000208,0.011873,-0.022503,0.606689,-0.181152,0.660889,-0.675811,-0.223449,0.072681,-0.698619
28023,,4.049851,1.994304,8.839829,0.003383,0.013198,-0.022903,0.600342,-0.186035,0.663330,-0.675813,-0.223448,0.072659,-0.698619
28024,,4.069326,2.004626,8.848740,0.001280,0.010347,-0.019261,0.602295,-0.183594,0.667480,-0.675808,-0.223449,0.072660,-0.698624
28025,,4.064447,1.994132,8.870403,0.001571,0.010436,-0.021499,0.602295,-0.181396,0.665283,-0.675809,-0.223449,0.072656,-0.698622
28026,,4.087530,2.015757,8.858058,-0.000947,0.011390,-0.021630,0.602539,-0.186035,0.663330,-0.675815,-0.223440,0.072658,-0.698620
28027,,4.047825,2.009565,8.820254,0.001571,0.010432,-0.021501,0.602295,-0.181396,0.663086,-0.675817,-0.223441,0.072654,-0.698618
28028,,4.081143,2.006203,8.880202,0.001073,0.012241,-0.021153,0.604736,-0.185791,0.667480,-0.675820,-0.223435,0.072647,-0.698618
28029,,4.062364,2.009299,8.850879,0.001280,0.010338,-0.019266,0.604736,-0.185791,0.665283,-0.675814,-0.223434,0.072647,-0.698623
28030,,4.057488,1.998791,8.872540,0.000707,0.010042,-0.022863,0.606689,-0.183594,0.663086,-0.675822,-0.223436,0.072647,-0.698615
28031,,4.054323,1.993929,8.813483,0.001936,0.012619,-0.019797,0.600098,-0.181396,0.663086,-0.675815,-0.223430,0.072635,-0.698625
28032,,4.070292,1.992687,8.843683,-0.000447,0.009564,-0.021988,0.604248,-0.176758,0.665039,-0.675821,-0.223429,0.072641,-0.698619
28033,,4.057036,2.013130,8.852452,0.002570,0.006796,-0.022206,0.602295,-0.183594,0.663086,-0.675830,-0.223446,0.072647,-0.698604
28034,,4.046973,1.985358,8.835844,0.000780,0.012140,-0.018922,0.606689,-0.183594,0.663086,-0.675825,-0.223439,0.072644,-0.698612
28035,,4.066429,1.995503,8.844825,0.000780,0.012138,-0.018923,0.604492,-0.183594,0.667480,-0.675818,-0.223430,0.072639,-0.698622
28036,,4.049436,2.004269,8.874983,-0.001601,0.009082,-0.021114,0.604492,-0.181396,0.665283,-0.675822,-0.223427,0.072652,-0.698618
28037,,4.075867,1.977607,8.837253,-0.000083,0.011749,-0.020285,0.606689,-0.183594,0.663086,-0.675824,-0.223417,0.072652,-0.698619
28038,,4.062359,1.997963,8.846140,0.001572,0.010409,-0.021513,0.604492,-0.181396,0.663086,-0.675826,-0.223420,0.072648,-0.698616
28039,,4.049024,2.018303,8.854942,-0.000237,0.007650,-0.020107,0.604492,-0.179199,0.665039,-0.675824,-0.223424,0.072662,-0.698616
28040,,4.092818,1.989553,8.846999,0.000278,0.013940,-0.018580,0.602295,-0.179199,0.662842,-0.675818,-0.223409,0.072654,-0.698627
28041,,4.073954,1.992490,8.817740,0.000779,0.012127,-0.018930,0.604248,-0.176758,0.662842,-0.675819,-0.223400,0.072652,-0.698629
28042,,4.077912,2.010786,8.856320,0.002575,0.006780,-0.022215,0.602295,-0.183594,0.663086,-0.675822,-0.223419,0.072657,-0.698620
28043,,4.055785,2.002407,8.848151,-0.000946,0.011351,-0.021652,0.602295,-0.179199,0.665039,-0.675832,-0.223408,0.072659,-0.698614
28044,,4.075197,2.012620,8.857153,0.000209,0.011822,-0.022532,0.606689,-0.185791,0.665283,-0.675839,-0.223402,0.072655,-0.698609
28045,,4.052846,2.004144,8.849104,-0.000084,0.011732,-0.020294,0.604492,-0.183594,0.665283,-0.675841,-0.223392,0.072654,-0.698610
28046,,4.067182,1.997031,8.819838,0.000418,0.009920,-0.020644,0.602295,-0.181396,0.658691,-0.675841,-0.223392,0.072658,-0.698610
28047,,4.083276,1.995670,8.850030,-0.001892,0.008971,-0.018889,0.606445,-0.176758,0.665039,-0.675837,-0.223386,0.072674,-0.698614
28048,,4.049001,2.006695,8.850287,0.004385,0.009526,-0.023629,0.608887,-0.178955,0.665039,-0.675843,-0.223402,0.072661,-0.698604
28049,,4.064897,2.005563,8.880515,-0.003466,0.012286,-0.021794,0.600098,-0.181396,0.663086,-0.675860,-0.223380,0.072670,-0.698594
28050,,4.058332,1.988793,8.842810,-0.003256,0.010388,-0.019905,0.602539,-0.186035,0.665283,-0.675862,-0.223366,0.072686,-0.698595
28051,,4.057071,1.989610,8.843205,0.003799,0.009349,-0.019154,0.602295,-0.183594,0.669678,-0.675853,-0.223377,0.072680,-0.698600
28052,,4.076654,2.000047,8.852095,0.000712,0.009994,-0.022890,0.600098,-0.179199,0.660645,-0.675861,-0.223379,0.072680,-0.698592
28053,,4.078915,2.012382,8.831231,-0.000737,0.009433,-0.019774,0.600342,-0.188232,0.661133,-0.675865,-0.223374,0.072690,-0.698589
28054,,4.074001,2.001764,8.852928,0.001070,0.012188,-0.021183,0.604492,-0.185791,0.658936,-0.675867,-0.223369,0.072684,-0.698590
28055,,4.056747,2.010660,8.883089,0.001931,0.012573,-0.019823,0.602539,-0.186035,0.663330,-0.675855,-0.223363,0.072671,-0.698604
28056,,4.062499,1.974963,8.836816,0.002078,0.008564,-0.021881,0.604492,-0.183594,0.660889,-0.675857,-0.223374,0.072672,-0.698598
28057,,4.087222,2.002604,8.883956,-0.000736,0.009424,-0.019779,0.602295,-0.183594,0.665283,-0.675852,-0.223371,0.072681,-0.698604
28058,,4.084287,1.997674,8.824897,0.003085,0.013041,-0.020704,0.604736,-0.185791,0.669678,-0.675850,-0.223369,0.072664,-0.698608
28059,,4.046156,1.997203,8.846494,0.000209,0.011788,-0.022551,0.604492,-0.181396,0.665283,-0.675858,-0.223361,0.072659,-0.698603
28060,,4.065493,2.007565,8.855525,0.001069,0.012174,-0.021190,0.602295,-0.183594,0.660889,-0.675860,-0.223356,0.072653,-0.698603
28061,,4.093682,1.987094,8.877317,0.001785,0.008470,-0.019647,0.606934,-0.185791,0.667480,-0.675855,-0.223364,0.072657,-0.698605
28062,,4.059448,1.998076,8.877480,0.002940,0.008942,-0.020526,0.608887,-0.181152,0.667236,-0.675852,-0.223376,0.072655,-0.698605
28063,,4.077545,2.002805,8.826852,0.004095,0.009414,-0.021405,0.604492,-0.181396,0.663086,-0.675850,-0.223389,0.072645,-0.698604
28064,,4.051907,1.982941,8.839892,-0.000441,0.009493,-0.022027,0.602295,-0.179199,0.658691,-0.675856,-0.223388,0.072652,-0.698597
28065,,4.074963,2.004789,8.827594,0.001574,0.010355,-0.021544,0.597900,-0.183838,0.665283,-0.675861,-0.223390,0.072649,-0.698592
28066,,4.070021,1.994245,8.849284,0.000773,0.012077,-0.018958,0.602295,-0.179199,0.665039,-0.675855,-0.223383,0.072646,-0.698600
28067,,4.065007,1.983660,8.871016,0.000209,0.011768,-0.022562,0.602295,-0.179199,0.662842,-0.675869,-0.223374,0.072642,-0.698590
28068,,4.054870,2.015474,8.858599,0.001575,0.010348,-0.021548,0.602295,-0.185791,0.661133,-0.675871,-0.223377,0.072639,-0.698587
28069,,4.086621,2.006527,8.859160,0.001280,0.010263,-0.019308,0.600098,-0.181396,0.660889,-0.675866,-0.223377,0.072639,-0.698592
28070,,4.064633,1.997905,8.850935,-0.001087,0.007198,-0.021504,0.604492,-0.181396,0.665283,-0.675870,-0.223382,0.072656,-0.698585
28071,,4.054902,1.969975,8.834302,0.001575,0.010343,-0.021551,0.602295,-0.183594,0.663086,-0.675876,-0.223384,0.072653,-0.698580
28072,,4.070580,2.028477,8.868707,-0.001242,0.011200,-0.019449,0.600098,-0.183838,0.665283,-0.675874,-0.223373,0.072660,-0.698584
28073,,4.085216,1.961931,8.835350,0.003885,0.011287,-0.023309,0.602539,-0.186035,0.663330,-0.675881,-0.223379,0.072643,-0.698577
28074,,4.059294,2.001648,8.852540,-0.000735,0.009388,-0.019799,0.602295,-0.183594,0.665283,-0.675879,-0.223377,0.072653,-0.698578
28075,,4.066386,2.031419,8.869957,0.003940,0.013400,-0.019360,0.602295,-0.183594,0.665283,-0.675870,-0.223375,0.072633,-0.698590
28076,,4.059977,2.015137,8.832142,0.001576,0.010332,-0.021557,0.602295,-0.183594,0.658691,-0.675872,-0.223378,0.072630,-0.698587
28077,,4.058659,2.016082,8.832531,0.000421,0.009856,-0.020680,0.600098,-0.179199,0.665039,-0.675871,-0.223377,0.072633,-0.698588
28078,,4.066112,1.986209,8.845782,0.001576,0.010328,-0.021559,0.600342,-0.186035,0.665527,-0.675873,-0.223380,0.072630,-0.698585
28079,,4.031673,1.997057,8.845964,0.001576,0.010326,-0.021561,0.604248,-0.176758,0.662842,-0.675880,-0.223381,0.072627,-0.698579
28080,,4.063454,1.988182,8.846560,0.001279,0.010242,-0.019320,0.604492,-0.185791,0.663330,-0.675874,-0.223382,0.072628,-0.698584
28081,,4.065680,2.000619,8.825696,0.001576,0.010322,-0.021563,0.606689,-0.183594,0.665283,-0.675879,-0.223384,0.072624,-0.698580
28082,,4.076627,1.982197,8.817742,-0.000946,0.011259,-0.021704,0.602295,-0.183594,0.663086,-0.675884,-0.223376,0.072627,-0.698576
28083,,4.088608,2.029434,8.873366,0.004099,0.009378,-0.021425,0.604492,-0.179199,0.665039,-0.675882,-0.223389,0.072618,-0.698576
28084,,4.054569,1.980702,8.869365,0.001576,0.010315,-0.021567,0.602295,-0.181396,0.656494,-0.675884,-0.223392,0.072615,-0.698573
28085,,4.077573,2.002840,8.857065,0.004099,0.009374,-0.021428,0.600098,-0.179199,0.667236,-0.675885,-0.223406,0.072606,-0.698568
28086,,4.063922,2.023277,8.865789,0.000719,0.009917,-0.022933,0.606689,-0.185791,0.663330,-0.675893,-0.223408,0.072606,-0.698560
28087,,4.057645,2.006867,8.827976,0.000208,0.011721,-0.022589,0.604492,-0.183594,0.660889,-0.675903,-0.223400,0.072602,-0.698553
28088,,4.061062,2.025051,8.866695,-0.001244,0.011164,-0.019470,0.602539,-0.186035,0.663330,-0.675901,-0.223390,0.072608,-0.698557
28089,,4.068624,1.995074,8.879963,0.001790,0.008418,-0.019676,0.604492,-0.179199,0.667236,-0.675891,-0.223399,0.072611,-0.698564
28090,,4.053612,2.009506,8.829228,0.001363,0.012188,-0.023470,0.602295,-0.185791,0.658936,-0.675901,-0.223395,0.072601,-0.698556
28091,,4.078387,1.977832,8.872324,0.002301,0.006609,-0.020024,0.602295,-0.181396,0.658691,-0.675896,-0.223412,0.072609,-0.698555
28092,,4.068336,2.009543,8.859794,-0.000090,0.011630,-0.020352,0.602295,-0.183594,0.663086,-0.675897,-0.223404,0.072609,-0.698557
28093,,4.065670,2.004564,8.800728,0.001577,0.010296,-0.021577,0.604492,-0.183594,0.665283,-0.675898,-0.223406,0.072605,-0.698555
28094,,4.086439,2.021013,8.869199,0.000934,0.008014,-0.021046,0.602295,-0.183594,0.663086,-0.675899,-0.223415,0.072613,-0.698551
28095,,4.089461,1.973765,8.844104,0.002004,0.006523,-0.017785,0.602539,-0.188232,0.665527,-0.675885,-0.223430,0.072625,-0.698558
28096,,4.062162,2.007258,8.801734,-0.003172,0.012240,-0.024107,0.604492,-0.181396,0.663086,-0.675902,-0.223411,0.072629,-0.698547
28097,,4.062051,2.014214,8.861617,0.004911,0.007626,-0.024029,0.600098,-0.181396,0.665283,-0.675906,-0.223434,0.072619,-0.698538
28098,,4.064241,2.026719,8.840753,-0.001759,0.012948,-0.019136,0.606445,-0.178955,0.658447,-0.675904,-0.223416,0.072622,-0.698545
28099,,4.050858,1.987196,8.845518,0.001363,0.012168,-0.023482,0.606689,-0.183594,0.667480,-0.675918,-0.223411,0.072612,-0.698534
28100,,4.073629,2.009220,8.833378,-0.000947,0.011216,-0.021728,0.604492,-0.183594,0.660889,-0.675924,-0.223403,0.072614,-0.698531
28101,,4.065167,1.987158,8.876306,0.002433,0.010677,-0.020221,0.595703,-0.183838,0.658936,-0.675918,-0.223406,0.072607,-0.698536
28102,,4.050106,2.001530,8.825593,0.001064,0.012083,-0.021243,0.602295,-0.181396,0.665283,-0.675921,-0.223401,0.072601,-0.698536
28103,,4.049996,2.008380,8.885477,0.000936,0.007996,-0.021056,0.602295,-0.183594,0.665283,-0.675923,-0.223408,0.072608,-0.698530
28104,,4.081725,1.999699,8.886199,0.000849,0.013961,-0.023144,0.604736,-0.185791,0.667480,-0.675933,-0.223397,0.072594,-0.698526
28105,,4.063187,2.002650,8.856687,0.002606,0.006662,-0.022282,0.606689,-0.183594,0.663086,-0.675934,-0.223414,0.072598,-0.698519
28106,,4.091658,1.982702,8.878494,0.004102,0.009337,-0.021450,0.602295,-0.185791,0.658936,-0.675933,-0.223429,0.072589,-0.698516
28107,,4.060754,2.004724,8.857333,-0.002401,0.010647,-0.018615,0.606689,-0.178955,0.662842,-0.675923,-0.223416,0.072601,-0.698528
28108,,4.059348,2.005474,8.857808,0.001063,0.012070,-0.021250,0.606689,-0.181152,0.660889,-0.675926,-0.223411,0.072594,-0.698528
28109,,4.061567,2.017926,8.836948,0.001793,0.008382,-0.019697,0.600098,-0.181396,0.665283,-0.675922,-0.223421,0.072599,-0.698528
28110,,4.060296,2.018982,8.837290,0.002733,0.010736,-0.022475,0.606445,-0.178955,0.658447,-0.675927,-0.223427,0.072589,-0.698523
28111,,4.071324,2.000782,8.829372,0.001063,0.012063,-0.021254,0.606445,-0.178955,0.658447,-0.675933,-0.223420,0.072583,-0.698520
28112,,4.090618,2.011366,8.838465,0.001278,0.010181,-0.019355,0.606689,-0.183594,0.658691,-0.675927,-0.223422,0.072584,-0.698524
28113,,4.044367,1.981408,8.842812,-0.000947,0.011185,-0.021745,0.602295,-0.183594,0.658691,-0.675930,-0.223414,0.072585,-0.698524
28114,,4.054616,2.022523,8.839088,-0.001763,0.012911,-0.019157,0.604492,-0.181396,0.660889,-0.675929,-0.223396,0.072588,-0.698531
28115,,4.082921,2.002225,8.861099,0.000940,0.007972,-0.021070,0.604492,-0.183594,0.667480,-0.675927,-0.223404,0.072594,-0.698529
28116,,4.077008,1.985684,8.823236,-0.000946,0.011178,-0.021749,0.606689,-0.181396,0.663086,-0.675933,-0.223396,0.072597,-0.698526
28117,,4.080316,2.003883,8.861924,0.000124,0.009697,-0.018483,0.600098,-0.179199,0.660645,-0.675927,-0.223394,0.072604,-0.698532
28118,,4.058365,1.995097,8.853636,0.001579,0.010246,-0.021606,0.604492,-0.183594,0.667480,-0.675929,-0.223397,0.072602,-0.698529
28119,,4.044538,2.015290,8.862354,0.001278,0.010168,-0.019362,0.600098,-0.181396,0.663086,-0.675928,-0.223397,0.072603,-0.698530
28120,,4.072730,1.995307,8.884370,0.003372,0.012995,-0.023020,0.604492,-0.183594,0.665283,-0.675934,-0.223398,0.072583,-0.698526
28121,,4.070299,1.990466,8.825256,0.000089,0.007560,-0.022444,0.602295,-0.181396,0.663086,-0.675942,-0.223404,0.072593,-0.698515
28122,,4.052919,1.998964,8.855259,-0.001765,0.012893,-0.019168,0.602539,-0.186035,0.665283,-0.675940,-0.223386,0.072596,-0.698522
28123,,4.060485,1.969064,8.868645,0.002433,0.010636,-0.020244,0.600342,-0.186035,0.667480,-0.675937,-0.223389,0.072589,-0.698525
28124,,4.050144,2.000808,8.856112,0.000727,0.009832,-0.022981,0.604248,-0.178955,0.658691,-0.675945,-0.223391,0.072590,-0.698517
28125,,4.064837,1.994008,8.826973,0.000760,0.011960,-0.019025,0.606689,-0.178955,0.662842,-0.675941,-0.223383,0.072586,-0.698524
28126,,4.077028,1.981643,8.878579,0.001580,0.010229,-0.021616,0.602295,-0.183594,0.658691,-0.675943,-0.223387,0.072584,-0.698521
28127,,4.062033,1.995945,8.827826,0.002768,0.012833,-0.018537,0.602295,-0.181396,0.665283,-0.675934,-0.223383,0.072571,-0.698531
28128,,4.077751,1.995092,8.858193,-0.000426,0.009348,-0.022109,0.602295,-0.181396,0.663086,-0.675940,-0.223383,0.072578,-0.698525
28129,,4.059348,1.997812,8.828639,0.001581,0.010223,-0.021619,0.604492,-0.183594,0.663086,-0.675947,-0.223385,0.072575,-0.698519
28130,,4.057921,1.998632,8.829109,-0.001767,0.012875,-0.019178,0.606689,-0.183594,0.665283,-0.675945,-0.223367,0.072578,-0.698525
28131,,4.064542,2.028403,8.846598,0.002434,0.010621,-0.020253,0.600098,-0.183838,0.667480,-0.675940,-0.223370,0.072571,-0.698530
28132,,4.075758,2.010061,8.838715,-0.001247,0.011068,-0.019524,0.604492,-0.179199,0.662842,-0.675938,-0.223361,0.072578,-0.698534
28133,,4.050127,1.989532,8.851760,-0.000612,0.013344,-0.020059,0.606689,-0.181396,0.665039,-0.675943,-0.223343,0.072574,-0.698535
28134,,4.048725,1.990291,8.852231,0.000125,0.009665,-0.018501,0.602539,-0.186035,0.665283,-0.675936,-0.223343,0.072582,-0.698541
28135,,4.071726,2.012343,8.840054,0.000645,0.007861,-0.018845,0.602295,-0.179199,0.667236,-0.675928,-0.223349,0.072592,-0.698546
28136,,4.054254,2.021056,8.869982,0.003372,0.012963,-0.023039,0.606689,-0.181152,0.660889,-0.675934,-0.223349,0.072573,-0.698542
28137,,4.078040,1.983663,8.853796,-0.000727,0.009256,-0.019873,0.602295,-0.183594,0.660889,-0.675938,-0.223346,0.072583,-0.698539
28138,,4.064159,2.003734,8.862488,0.001583,0.010205,-0.021629,0.606689,-0.178955,0.665039,-0.675940,-0.223350,0.072581,-0.698535
28139,,4.078970,1.997071,8.833332,0.000732,0.009799,-0.023000,0.604492,-0.181396,0.667236,-0.675950,-0.223351,0.072581,-0.698525
28140,,4.064977,2.017166,8.842060,-0.000093,0.011527,-0.020411,0.602295,-0.179199,0.665039,-0.675951,-0.223344,0.072581,-0.698527
28141,,4.093276,1.997183,8.864152,0.002434,0.010603,-0.020264,0.602295,-0.181396,0.663086,-0.675954,-0.223347,0.072576,-0.698523
28142,,4.055213,1.996029,8.885345,0.000429,0.009721,-0.020757,0.602295,-0.183594,0.665283,-0.675955,-0.223348,0.072580,-0.698522
28143,,4.065285,2.037504,8.881557,0.003067,0.012876,-0.020801,0.602295,-0.181396,0.660889,-0.675956,-0.223345,0.072564,-0.698524
28144,,4.064965,1.978753,8.877941,-0.001248,0.011042,-0.019539,0.606445,-0.176758,0.660645,-0.675954,-0.223336,0.072571,-0.698527
28145,,4.084302,1.989372,8.887064,0.001802,0.008319,-0.019733,0.602539,-0.186035,0.667480,-0.675953,-0.223345,0.072576,-0.698525
28146,,4.069548,2.003598,8.836199,0.001584,0.010189,-0.021639,0.604736,-0.187988,0.663330,-0.675956,-0.223349,0.072573,-0.698521
28147,,4.101474,1.995190,8.837033,0.000430,0.009711,-0.020762,0.602295,-0.183594,0.663086,-0.675950,-0.223348,0.072575,-0.698527
28148,,4.063515,1.993945,8.858164,0.000952,0.007908,-0.021106,0.602295,-0.183594,0.663086,-0.675950,-0.223358,0.072583,-0.698523
28149,,4.078503,1.987224,8.828985,0.001280,0.010113,-0.019395,0.602295,-0.183594,0.660889,-0.675944,-0.223358,0.072583,-0.698529
28150,,4.081470,2.005684,8.867676,0.002216,0.012457,-0.022179,0.600098,-0.183838,0.663086,-0.675948,-0.223356,0.072570,-0.698526
28151,,4.063018,2.008373,8.838119,0.000430,0.009703,-0.020767,0.600342,-0.186035,0.665527,-0.675947,-0.223356,0.072573,-0.698527
28152,,4.058167,1.997637,8.859783,-0.001248,0.011025,-0.019549,0.600098,-0.181396,0.663086,-0.675946,-0.223347,0.072580,-0.698531
28153,,4.073068,1.990966,8.830651,0.004113,0.009257,-0.021496,0.602539,-0.186035,0.663330,-0.675946,-0.223360,0.072571,-0.698528
28154,,4.076136,2.009332,8.869303,-0.001554,0.010951,-0.017303,0.602295,-0.181396,0.665283,-0.675937,-0.223349,0.072582,-0.698539
28155,,4.087462,1.991061,8.861454,0.003590,0.011054,-0.021156,0.606689,-0.181396,0.665039,-0.675935,-0.223354,0.072569,-0.698540
28156,,4.052878,2.001395,8.861356,0.000431,0.009693,-0.020773,0.606689,-0.185791,0.663330,-0.675936,-0.223355,0.072573,-0.698539
28157,,4.084772,1.992962,8.862267,0.000756,0.011898,-0.019061,0.604492,-0.181396,0.665283,-0.675928,-0.223349,0.072569,-0.698549
28158,,4.062870,1.983976,8.853934,0.000431,0.009689,-0.020775,0.599854,-0.177002,0.665039,-0.675928,-0.223350,0.072573,-0.698548
28159,,4.069348,2.013849,8.871395,0.002454,0.012709,-0.016321,0.602295,-0.179199,0.662842,-0.675921,-0.223344,0.072566,-0.698557
28160,,4.067197,2.009019,8.812274,0.004422,0.009313,-0.023752,0.602295,-0.183594,0.663086,-0.675928,-0.223361,0.072554,-0.698547
28161,,4.079322,1.996920,8.863886,-0.000942,0.011074,-0.021809,0.602295,-0.183594,0.663086,-0.675937,-0.223351,0.072557,-0.698541
28162,,4.064629,2.010844,8.813042,-0.000503,0.007337,-0.017995,0.604492,-0.185791,0.658936,-0.675928,-0.223357,0.072576,-0.698546
28163,,4.059813,2.000035,8.834704,-0.001468,0.012869,-0.021469,0.599854,-0.177002,0.662842,-0.675928,-0.223340,0.072573,-0.698551
28164,,4.082403,2.022160,8.822758,-0.000400,0.011408,-0.018192,0.602295,-0.183594,0.663086,-0.675921,-0.223331,0.072577,-0.698560
28165,,4.070458,1.988459,8.886879,0.002436,0.010560,-0.020289,0.602295,-0.181396,0.665283,-0.675924,-0.223334,0.072572,-0.698557
28166,,4.072650,2.001017,8.866030,0.001588,0.010149,-0.021662,0.602295,-0.179199,0.660645,-0.675927,-0.223338,0.072570,-0.698553
28167,,4.071240,2.002010,8.866453,0.001061,0.011946,-0.021322,0.604492,-0.179199,0.660645,-0.675935,-0.223332,0.072564,-0.698548
28168,,4.049507,1.992862,8.858060,-0.002504,0.006441,-0.018496,0.604492,-0.181396,0.660889,-0.675929,-0.223334,0.072592,-0.698550
28169,,4.061229,1.974496,8.850107,0.001808,0.008278,-0.019757,0.604492,-0.183594,0.663086,-0.673741,-0.223453,0.072055,-0.700678
28170,,4.084736,2.002891,8.897504,0.003284,0.010960,-0.018922,0.602295,-0.179199,0.658691,-0.673732,-0.223458,0.072047,-0.700686
28171,,4.079049,1.986323,8.859701,-0.000621,0.013260,-0.020108,0.604492,-0.181396,0.658691,-0.673735,-0.223442,0.072043,-0.700688
28172,,4.081185,1.998609,8.838943,-0.000721,0.009185,-0.019914,0.604492,-0.181396,0.663086,-0.673734,-0.223441,0.072054,-0.700689
28173,,4.046485,2.008620,8.838870,0.000533,0.013733,-0.020988,0.602295,-0.183594,0.660889,-0.673737,-0.223427,0.072044,-0.700691
28174,,4.074814,1.988730,8.861110,-0.000720,0.009181,-0.019916,0.613281,-0.185547,0.660889,-0.673735,-0.223426,0.072055,-0.700692
28175,,4.060867,2.008672,8.869703,0.000963,0.007857,-0.021135,0.602295,-0.183594,0.656738,-0.673721,-0.223436,0.072058,-0.700702
28176,,4.051966,1.980556,8.852999,-0.000413,0.009243,-0.022168,0.604736,-0.185791,0.665283,-0.673727,-0.223436,0.072066,-0.700696
28177,,4.091720,2.001222,8.870984,-0.000720,0.009175,-0.019919,0.604492,-0.185791,0.658936,-0.673719,-0.223435,0.072074,-0.700703
28178,,4.069864,1.991976,8.862655,-0.001778,0.012769,-0.019239,0.602539,-0.188232,0.658936,-0.673717,-0.223417,0.072077,-0.700710
28179,,4.068510,1.992850,8.863081,0.003812,0.009149,-0.019271,0.606689,-0.181396,0.665039,-0.673693,-0.223431,0.072068,-0.700730
28180,,4.053811,2.007057,8.812159,0.002437,0.010534,-0.020304,0.604492,-0.185791,0.661133,-0.673690,-0.223436,0.072063,-0.700732
28181,,4.070083,2.012388,8.902075,0.000435,0.009644,-0.020801,0.604492,-0.179199,0.665039,-0.673684,-0.223436,0.072065,-0.700737
28182,,4.080960,1.988148,8.834762,-0.000403,0.011374,-0.018211,0.604492,-0.181396,0.660889,-0.673677,-0.223428,0.072069,-0.700746
28183,,4.063221,1.996453,8.864696,-0.000094,0.011437,-0.020463,0.608887,-0.185791,0.667480,-0.673684,-0.223420,0.072071,-0.700742
28184,,4.044882,1.998784,8.835123,-0.001249,0.010959,-0.019587,0.602539,-0.186035,0.663330,-0.673682,-0.223410,0.072078,-0.700746
28185,,4.060635,1.998121,8.865505,0.002651,0.006519,-0.022364,0.606689,-0.181152,0.660889,-0.673674,-0.223430,0.072079,-0.700748
28186,,4.072199,1.979938,8.857654,-0.001780,0.012752,-0.019249,0.604492,-0.183594,0.658691,-0.673672,-0.223412,0.072083,-0.700754
28187,,4.065485,2.028843,8.883448,0.001907,0.012318,-0.019971,0.602295,-0.181396,0.665283,-0.673665,-0.223409,0.072072,-0.700764
28188,,4.048829,1.971777,8.849761,0.002437,0.010519,-0.020313,0.604492,-0.183594,0.660889,-0.673662,-0.223413,0.072067,-0.700766
28189,,4.074965,2.005767,8.816560,-0.000094,0.011425,-0.020470,0.600098,-0.179199,0.662842,-0.673664,-0.223405,0.072067,-0.700766
28190,,4.070063,1.995161,8.838207,0.002438,0.010516,-0.020315,0.604492,-0.181396,0.663086,-0.673661,-0.223410,0.072062,-0.700768
28191,,4.068784,1.996075,8.838590,0.000973,0.009973,-0.017188,0.604492,-0.183594,0.667480,-0.673658,-0.223409,0.072069,-0.700771
28192,,4.084448,1.995601,8.868982,0.004434,0.009256,-0.023786,0.604736,-0.185791,0.665283,-0.673664,-0.223426,0.072057,-0.700760
28193,,4.029275,1.995669,8.859959,-0.000090,0.013562,-0.016510,0.600098,-0.181396,0.660889,-0.673647,-0.223409,0.072053,-0.700783
28194,,4.064585,1.999031,8.839854,0.001371,0.011955,-0.023605,0.604492,-0.181396,0.663086,-0.673657,-0.223407,0.072043,-0.700775
28195,,4.063217,1.999945,8.840276,-0.000716,0.009139,-0.019941,0.600098,-0.183838,0.665283,-0.673662,-0.223404,0.072054,-0.700770
28196,,4.058354,1.989246,8.861922,0.000216,0.011473,-0.022731,0.604492,-0.183594,0.663086,-0.673670,-0.223399,0.072051,-0.700764
28197,,4.053427,1.978694,8.883563,0.002438,0.010503,-0.020323,0.604492,-0.183594,0.663086,-0.673667,-0.223402,0.072045,-0.700766
28198,,4.092423,1.993697,8.842172,-0.000094,0.011405,-0.020482,0.600098,-0.183594,0.660889,-0.673668,-0.223396,0.072046,-0.700768
28199,,4.054198,1.992100,8.863183,0.002439,0.010499,-0.020325,0.606689,-0.185791,0.661133,-0.673664,-0.223399,0.072040,-0.700771
28200,,4.048904,1.975537,8.825281,-0.000405,0.009191,-0.022199,0.604492,-0.181396,0.660889,-0.673670,-0.223400,0.072047,-0.700765
28201,,4.058659,2.017086,8.821499,0.001594,0.010081,-0.021702,0.600098,-0.181396,0.665283,-0.673665,-0.223404,0.072042,-0.700768
28202,,4.070744,2.005162,8.873125,0.004127,0.009175,-0.021545,0.604736,-0.188232,0.665527,-0.673664,-0.223419,0.072034,-0.700765
28203,,4.048918,1.996123,8.864691,-0.000628,0.013190,-0.020149,0.597900,-0.183838,0.667480,-0.673662,-0.223403,0.072029,-0.700772
28204,,4.080803,1.988040,8.865805,0.001595,0.010074,-0.021706,0.600342,-0.186035,0.663330,-0.673665,-0.223407,0.072027,-0.700769
28205,,4.045631,1.992028,8.806069,0.001061,0.011867,-0.021368,0.604492,-0.181396,0.660889,-0.673671,-0.223401,0.072020,-0.700766
28206,,4.081529,2.001571,8.845427,0.000752,0.009654,-0.023084,0.606689,-0.178955,0.667236,-0.673679,-0.223404,0.072021,-0.700757
28207,,4.063562,2.010070,8.875307,0.002524,0.014551,-0.020533,0.600098,-0.183838,0.665283,-0.673683,-0.223394,0.072002,-0.700758
28208,,4.074961,1.992161,8.867567,0.001908,0.010127,-0.023964,0.602295,-0.179199,0.660645,-0.673693,-0.223399,0.071997,-0.700748
28209,,4.056687,1.994636,8.837900,0.000749,0.011797,-0.019121,0.606689,-0.183594,0.665283,-0.673696,-0.223392,0.071995,-0.700747
28210,,4.055365,1.995657,8.838277,0.002444,0.008327,-0.024305,0.602295,-0.181396,0.663086,-0.673705,-0.223406,0.071993,-0.700734
28211,,4.054088,1.996778,8.838609,0.002439,0.010475,-0.020339,0.602295,-0.181396,0.665283,-0.673703,-0.223410,0.071987,-0.700736
28212,,4.065617,1.978848,8.830835,0.002216,0.012329,-0.022255,0.606689,-0.183594,0.665283,-0.673707,-0.223408,0.071975,-0.700733
28213,,4.067982,1.997483,8.869574,0.002216,0.012326,-0.022256,0.604736,-0.185791,0.665283,-0.673713,-0.223405,0.071961,-0.700730
28214,,4.046123,1.988354,8.861157,-0.000094,0.011369,-0.020503,0.606689,-0.183594,0.660889,-0.673713,-0.223398,0.071962,-0.700732
28215,,4.072312,2.022368,8.827981,-0.000176,0.007301,-0.020304,0.608887,-0.185791,0.665283,-0.673702,-0.223405,0.071973,-0.700739
28216,,4.067413,2.011751,8.849619,0.002521,0.014532,-0.020545,0.600098,-0.183594,0.656738,-0.673701,-0.223397,0.071954,-0.700745
28217,,4.078837,1.993926,8.841893,0.002223,0.010165,-0.026230,0.606689,-0.178955,0.665039,-0.673710,-0.223404,0.071941,-0.700736
28218,,4.061043,2.002493,8.871624,0.003506,0.009026,-0.017055,0.602295,-0.181396,0.658691,-0.673693,-0.223416,0.071941,-0.700747
28219,,4.063178,2.014998,8.850826,0.000524,0.013629,-0.021049,0.600098,-0.183594,0.660889,-0.673701,-0.223403,0.071932,-0.700745
28220,,4.054264,1.986832,8.834261,0.001061,0.011833,-0.021388,0.602295,-0.179199,0.665039,-0.673703,-0.223399,0.071926,-0.700745
28221,,4.069731,1.986334,8.864789,0.001286,0.009978,-0.019473,0.606689,-0.185791,0.665283,-0.673706,-0.223400,0.071929,-0.700742
28222,,4.071910,1.998755,8.843995,-0.000094,0.011351,-0.020514,0.608887,-0.181152,0.665039,-0.673707,-0.223393,0.071930,-0.700743
28223,,4.067092,1.988167,8.865590,0.002979,0.008659,-0.020690,0.604492,-0.185791,0.661133,-0.673696,-0.223406,0.071926,-0.700750
28224,,4.061917,1.971543,8.827725,-0.001473,0.012721,-0.021556,0.602295,-0.185791,0.661133,-0.673702,-0.223391,0.071926,-0.700749
28225,,4.050981,2.002949,8.815138,0.001600,0.010029,-0.021732,0.602295,-0.179199,0.662842,-0.673694,-0.223395,0.071920,-0.700756
28226,,4.083196,2.001196,8.875789,0.003057,0.012717,-0.020896,0.604248,-0.176758,0.665039,-0.673693,-0.223394,0.071905,-0.700759
28227,,4.044560,1.993420,8.837225,-0.000934,0.010921,-0.021898,0.604492,-0.181396,0.665283,-0.673715,-0.223385,0.071911,-0.700740
28228,,4.076501,1.985499,8.838428,0.001061,0.011816,-0.021398,0.606689,-0.185791,0.665283,-0.673717,-0.223381,0.071906,-0.700740
28229,,4.078904,2.003982,8.877134,0.000446,0.009543,-0.020860,0.600098,-0.183838,0.665283,-0.673713,-0.223382,0.071908,-0.700743
28230,,4.043904,2.007720,8.817302,0.002743,0.012652,-0.018645,0.602295,-0.183594,0.658691,-0.673705,-0.223379,0.071896,-0.700753
28231,,4.092642,1.998455,8.848645,-0.000093,0.011332,-0.020525,0.602295,-0.183594,0.663086,-0.673705,-0.223372,0.071896,-0.700755
28232,,4.058018,2.008282,8.848221,0.002996,0.006487,-0.024670,0.606689,-0.181152,0.660889,-0.673715,-0.223394,0.071898,-0.700738
28233,,4.053191,1.997915,8.869763,0.003056,0.012703,-0.020904,0.604492,-0.179199,0.662842,-0.673712,-0.223393,0.071881,-0.700743
28234,,4.055337,2.010408,8.848967,-0.000708,0.009054,-0.019989,0.604492,-0.181396,0.660889,-0.673711,-0.223392,0.071893,-0.700743
28235,,4.067149,1.992355,8.841193,0.001602,0.010008,-0.021744,0.602295,-0.183594,0.665283,-0.673718,-0.223396,0.071891,-0.700735
28236,,4.069574,2.010876,8.879856,0.000447,0.009528,-0.020869,0.600098,-0.186035,0.661133,-0.673718,-0.223397,0.071896,-0.700734
28237,,4.064602,1.994200,8.841948,0.000447,0.009526,-0.020870,0.602295,-0.181396,0.667236,-0.673717,-0.223398,0.071899,-0.700735
28238,,4.059643,1.983533,8.863621,0.000520,0.013586,-0.021074,0.602295,-0.181396,0.663086,-0.673719,-0.223386,0.071889,-0.700738
28239,,4.048522,2.014955,8.851053,0.001061,0.011792,-0.021413,0.600098,-0.181396,0.658691,-0.673729,-0.223380,0.071884,-0.700730
28240,,4.080597,2.007260,8.852214,0.002144,0.008206,-0.022087,0.600098,-0.181396,0.658691,-0.673732,-0.223393,0.071886,-0.700724
28241,,4.075782,1.996666,8.873803,0.000746,0.011732,-0.019159,0.602295,-0.181396,0.667236,-0.673732,-0.223386,0.071885,-0.700725
28242,,4.054208,1.987587,8.865200,0.004997,0.007367,-0.024180,0.604492,-0.183594,0.663086,-0.673739,-0.223412,0.071877,-0.700712
28243,,4.059941,2.011909,8.823104,0.001061,0.011783,-0.021418,0.600098,-0.181396,0.665283,-0.673744,-0.223407,0.071871,-0.700709
28244,,4.084812,1.981123,8.866785,0.002216,0.012259,-0.022296,0.602295,-0.181396,0.663086,-0.673748,-0.223405,0.071858,-0.700707
28245,,4.053493,2.002447,8.845184,0.002442,0.010410,-0.020378,0.604492,-0.179199,0.667236,-0.673753,-0.223409,0.071854,-0.700701
28246,,4.072455,2.013705,8.854499,0.000765,0.009562,-0.023138,0.604248,-0.178955,0.656494,-0.673761,-0.223412,0.071855,-0.700692
28247,,4.080861,1.984214,8.867913,0.000992,0.007713,-0.021219,0.604736,-0.185791,0.667480,-0.673770,-0.223422,0.071865,-0.700680
28248,,4.049667,2.005419,8.846263,0.002737,0.012619,-0.018666,0.606689,-0.183594,0.667480,-0.673761,-0.223419,0.071854,-0.700690
28249,,4.081635,1.997668,8.847541,-0.000932,0.010868,-0.021928,0.604492,-0.179199,0.660645,-0.673761,-0.223411,0.071854,-0.700693
28250,,4.083834,2.010265,8.826706,0.004141,0.009088,-0.021597,0.606689,-0.181396,0.665039,-0.673760,-0.223427,0.071847,-0.700690
28251,,4.075509,1.988100,8.869503,-0.001249,0.010809,-0.019674,0.604736,-0.188232,0.665527,-0.673762,-0.223418,0.071854,-0.700690
28252,,4.044200,2.009121,8.847924,0.000223,0.011339,-0.022810,0.604492,-0.181396,0.665283,-0.673770,-0.223413,0.071852,-0.700684
28253,,4.076186,2.001379,8.849215,-0.000094,0.011283,-0.020554,0.600098,-0.181396,0.665283,-0.673764,-0.223406,0.071850,-0.700692
28254,,4.074776,2.002208,8.849676,-0.000094,0.011281,-0.020555,0.600098,-0.183838,0.663086,-0.673765,-0.223399,0.071851,-0.700693
28255,,4.082897,1.972671,8.863265,-0.000004,0.013176,-0.024735,0.602295,-0.183594,0.663086,-0.673787,-0.223386,0.071841,-0.700677
28256,,4.058708,2.022918,8.858710,-0.000159,0.007217,-0.020352,0.606689,-0.181152,0.658691,-0.673785,-0.223394,0.071856,-0.700675
28257,,4.060066,1.964363,8.855050,0.003916,0.010919,-0.023526,0.602295,-0.183594,0.660889,-0.673789,-0.223403,0.071839,-0.700670
28258,,4.089568,2.016413,8.860265,-0.000704,0.009003,-0.020019,0.602295,-0.183594,0.660889,-0.673788,-0.223403,0.071851,-0.700670
28259,,4.047897,1.996763,8.842663,0.002989,0.008594,-0.020729,0.602295,-0.183594,0.663086,-0.673782,-0.223416,0.071848,-0.700672
28260,,4.063412,1.996471,8.873173,-0.000386,0.009052,-0.022279,0.604492,-0.183594,0.660889,-0.673788,-0.223417,0.071856,-0.700665
28261,,4.065535,2.009033,8.852379,0.002215,0.012223,-0.022318,0.602295,-0.179199,0.665039,-0.673789,-0.223415,0.071841,-0.700666
28262,,4.077266,1.997164,8.904225,0.000742,0.011689,-0.019185,0.597900,-0.181641,0.660889,-0.673784,-0.223410,0.071840,-0.700673
28263,,4.075716,1.998101,8.904724,0.000833,0.013582,-0.023367,0.602295,-0.183594,0.665283,-0.673806,-0.223398,0.071828,-0.700657
28264,,4.053976,1.988646,8.896245,-0.001249,0.010780,-0.019691,0.602295,-0.181396,0.660889,-0.673804,-0.223389,0.071836,-0.700660
28265,,4.063255,2.030224,8.892501,0.001836,0.008105,-0.019859,0.604736,-0.188232,0.667725,-0.673801,-0.223399,0.071841,-0.700659
28266,,4.071776,1.994770,8.846439,0.001608,0.009944,-0.021783,0.600098,-0.183838,0.663086,-0.673804,-0.223403,0.071840,-0.700656
28267,,4.053648,2.003033,8.876159,0.000225,0.011304,-0.022830,0.600098,-0.181396,0.665283,-0.673805,-0.223398,0.071834,-0.700657
28268,,4.052335,1.997925,8.817076,0.000453,0.009461,-0.020908,0.602539,-0.188232,0.663330,-0.673806,-0.223400,0.071838,-0.700655
28269,,4.084343,1.996434,8.877878,0.002215,0.012206,-0.022329,0.602295,-0.183594,0.665283,-0.673808,-0.223397,0.071824,-0.700655
28270,,4.046055,1.988324,8.839104,-0.000382,0.009029,-0.022292,0.606445,-0.178955,0.658447,-0.673814,-0.223398,0.071832,-0.700648
28271,,4.098540,1.991083,8.849328,0.001001,0.007666,-0.021247,0.606689,-0.183594,0.663086,-0.673816,-0.223408,0.071840,-0.700642
28272,,4.063761,2.000428,8.848846,-0.001478,0.012602,-0.021626,0.606689,-0.183594,0.663086,-0.673823,-0.223393,0.071840,-0.700641
28273,,4.045593,2.002452,8.819145,0.000741,0.011668,-0.019198,0.604736,-0.190430,0.667725,-0.673810,-0.223388,0.071836,-0.700656
28274,,4.077555,2.000827,8.880009,-0.000930,0.010809,-0.021963,0.602539,-0.188232,0.661133,-0.673816,-0.223380,0.071840,-0.700651
28275,,4.055972,1.991465,8.871421,0.003599,0.010834,-0.021289,0.599854,-0.177002,0.660645,-0.673796,-0.223388,0.071822,-0.700670
28276,,4.058156,2.004093,8.850589,0.001290,0.009873,-0.019536,0.597900,-0.181396,0.658691,-0.673791,-0.223391,0.071824,-0.700674
28277,,4.060330,2.016543,8.829802,-0.000094,0.011231,-0.020585,0.602295,-0.183594,0.663086,-0.673806,-0.223383,0.071828,-0.700661
28278,,4.068744,1.987066,8.843335,0.001610,0.009920,-0.021797,0.600342,-0.186035,0.665527,-0.673809,-0.223388,0.071826,-0.700657
28279,,4.054063,2.006890,8.851831,0.001895,0.012135,-0.020082,0.597900,-0.179443,0.669434,-0.673803,-0.223384,0.071816,-0.700665
28280,,4.052672,2.008081,8.852198,0.006139,0.009945,-0.021123,0.604736,-0.190430,0.659180,-0.673799,-0.223403,0.071799,-0.700665
28281,,4.061060,1.978696,8.865734,-0.001799,0.012531,-0.019379,0.604492,-0.181396,0.667236,-0.673795,-0.223385,0.071801,-0.700674
28282,,4.039390,1.969160,8.857214,0.001382,0.011748,-0.023728,0.600342,-0.186035,0.665527,-0.673805,-0.223383,0.071792,-0.700666
28283,,4.044968,1.999319,8.874678,0.000686,0.007593,-0.019001,0.600098,-0.183594,0.660889,-0.673799,-0.223391,0.071803,-0.700669
28284,,4.067530,2.022265,8.862786,0.002162,0.008120,-0.022139,0.602295,-0.185791,0.661133,-0.673801,-0.223403,0.071805,-0.700662
28285,,4.076081,1.992768,8.876289,-0.001249,0.010734,-0.019718,0.600098,-0.183838,0.663086,-0.673795,-0.223394,0.071811,-0.700670
28286,,4.058057,1.994708,8.846524,-0.000094,0.011212,-0.020596,0.604492,-0.181396,0.660889,-0.673796,-0.223388,0.071812,-0.700671
28287,,4.056760,1.995497,8.846941,-0.000698,0.008943,-0.020055,0.604492,-0.181396,0.665283,-0.673796,-0.223387,0.071823,-0.700671
28288,,4.048726,1.967098,8.830219,-0.000376,0.008990,-0.022316,0.604492,-0.185791,0.661133,-0.673802,-0.223388,0.071831,-0.700663
28289,,4.054217,1.997167,8.847730,0.000739,0.011637,-0.019217,0.604492,-0.183594,0.660889,-0.673793,-0.223383,0.071827,-0.700675
28290,,4.052754,1.998132,8.848182,0.001382,0.011731,-0.023739,0.602295,-0.183594,0.660889,-0.673803,-0.223381,0.071818,-0.700666
28291,,4.054903,2.010649,8.827396,0.000136,0.009366,-0.018676,0.602295,-0.181396,0.667236,-0.673791,-0.223381,0.071824,-0.700676
28292,,4.083582,1.991507,8.849985,-0.000094,0.011199,-0.020604,0.604492,-0.179199,0.662842,-0.673792,-0.223375,0.071826,-0.700678
28293,,4.065389,1.999568,8.879662,0.001291,0.009842,-0.019555,0.604492,-0.179199,0.660645,-0.673796,-0.223376,0.071829,-0.700673
28294,,4.077389,1.981720,8.872016,0.000228,0.011243,-0.022867,0.597900,-0.179199,0.662842,-0.673804,-0.223372,0.071826,-0.700667
28295,,4.049547,2.014176,8.829050,0.002124,0.010271,-0.018173,0.604492,-0.179199,0.665039,-0.673806,-0.223374,0.071828,-0.700664
28296,,4.064757,2.013868,8.859748,-0.001479,0.012545,-0.021660,0.608887,-0.181152,0.665039,-0.673813,-0.223359,0.071828,-0.700662
28297,,4.043294,2.004290,8.851117,0.003510,0.008914,-0.017124,0.600098,-0.183594,0.660889,-0.673800,-0.223372,0.071828,-0.700671
28298,,4.065727,2.027095,8.839343,-0.004900,0.008930,-0.023010,0.602051,-0.177002,0.665039,-0.673814,-0.223358,0.071851,-0.700659
28299,,4.054269,1.987086,8.843811,0.003833,0.008958,-0.019387,0.606689,-0.183594,0.663086,-0.673816,-0.223371,0.071849,-0.700654
28300,,4.093206,2.008997,8.862287,-0.000094,0.011183,-0.020614,0.604736,-0.185791,0.665283,-0.673817,-0.223365,0.071851,-0.700655
28301,,4.048153,1.977323,8.865791,0.000460,0.009395,-0.020948,0.602539,-0.186035,0.667480,-0.673809,-0.223367,0.071852,-0.700661
28302,,4.073910,2.011930,8.832868,0.001893,0.012092,-0.020108,0.600098,-0.181396,0.665283,-0.673806,-0.223364,0.071844,-0.700666
28303,,4.082522,1.982549,8.846390,0.001015,0.007605,-0.021283,0.606689,-0.181396,0.665039,-0.673809,-0.223373,0.071852,-0.700659
28304,,4.034280,2.010440,8.853835,0.000183,0.013394,-0.018901,0.604248,-0.176758,0.658447,-0.673804,-0.223360,0.071847,-0.700668
28305,,4.066299,2.002990,8.855350,0.000738,0.011606,-0.019235,0.604492,-0.183594,0.669678,-0.673806,-0.223354,0.071846,-0.700669
28306,,4.064896,2.003820,8.855806,-0.000924,0.010737,-0.022006,0.606689,-0.183594,0.656494,-0.673812,-0.223347,0.071850,-0.700664
28307,,4.076990,1.985938,8.848180,0.001293,0.009817,-0.019570,0.604492,-0.183594,0.665283,-0.673801,-0.223350,0.071850,-0.700674
28308,,4.085976,2.027724,8.844426,0.001849,0.008030,-0.019904,0.602295,-0.181396,0.665283,-0.673797,-0.223362,0.071856,-0.700674
28309,,4.057945,1.988951,8.818620,0.001062,0.011644,-0.021502,0.602295,-0.181396,0.663086,-0.673802,-0.223357,0.071850,-0.700672
28310,,4.042802,2.014654,8.886562,0.000463,0.009377,-0.020959,0.604736,-0.187988,0.663330,-0.673802,-0.223359,0.071855,-0.700670
28311,,4.038334,1.997868,8.848671,-0.000093,0.011160,-0.020628,0.608887,-0.185791,0.665283,-0.673797,-0.223353,0.071854,-0.700677
28312,,4.057111,2.008986,8.858205,-0.005219,0.008848,-0.020769,0.602295,-0.183594,0.663086,-0.673803,-0.223338,0.071880,-0.700673
28313,,4.069395,1.991166,8.850502,0.005040,0.007242,-0.024257,0.604492,-0.181396,0.663086,-0.673802,-0.223364,0.071870,-0.700667
28314,,4.101600,1.984018,8.851922,-0.000144,0.013330,-0.016651,0.602295,-0.183594,0.665283,-0.673789,-0.223349,0.071868,-0.700684
28315,,4.066768,1.993034,8.851288,0.001850,0.008019,-0.019911,0.604492,-0.183594,0.667480,-0.673786,-0.223359,0.071874,-0.700683
28316,,4.075764,2.034866,8.847497,0.001851,0.008017,-0.019912,0.604492,-0.183594,0.667480,-0.673781,-0.223371,0.071880,-0.700684
28317,,4.064343,1.995055,8.851947,0.003046,0.012544,-0.021002,0.606689,-0.183594,0.660889,-0.673780,-0.223369,0.071863,-0.700687
28318,,4.032951,2.015780,8.830103,0.000139,0.009317,-0.018705,0.606689,-0.183594,0.665283,-0.673773,-0.223370,0.071872,-0.700693
28319,,4.075081,1.978062,8.844794,-0.000651,0.012928,-0.020305,0.600098,-0.183838,0.663086,-0.673766,-0.223356,0.071867,-0.700704
28320,,4.083754,2.019770,8.841173,0.001294,0.009794,-0.019584,0.600098,-0.183838,0.663086,-0.673762,-0.223359,0.071869,-0.700707
28321,,4.055317,1.987002,8.874870,0.001388,0.011663,-0.023780,0.606689,-0.183594,0.663086,-0.673774,-0.223356,0.071859,-0.700698
28322,,4.090986,1.991636,8.855122,0.004163,0.008967,-0.021672,0.602051,-0.177002,0.667236,-0.673773,-0.223373,0.071852,-0.700694
28323,,4.035990,1.990290,8.845352,0.000504,0.013399,-0.021188,0.604492,-0.181396,0.667236,-0.673783,-0.223360,0.071844,-0.700689
28324,,4.068003,1.983084,8.846928,0.000233,0.011176,-0.022908,0.604492,-0.183594,0.658691,-0.673792,-0.223356,0.071841,-0.700682
28325,,4.069643,2.001564,8.885686,-0.001248,0.010650,-0.019769,0.600098,-0.183838,0.667480,-0.673789,-0.223347,0.071848,-0.700687
28326,,4.051750,2.003538,8.855803,0.003605,0.010743,-0.021345,0.606934,-0.187988,0.658936,-0.673789,-0.223356,0.071837,-0.700686
28327,,4.066889,2.003515,8.886507,-0.000092,0.011126,-0.020648,0.606934,-0.187988,0.663330,-0.673780,-0.223349,0.071835,-0.700696
28328,,4.062603,1.986819,8.848571,0.002181,0.008038,-0.022189,0.606689,-0.185791,0.665283,-0.673782,-0.223363,0.071837,-0.700689
28329,,4.044200,1.994889,8.878173,0.000503,0.013385,-0.021196,0.602295,-0.185791,0.658936,-0.673769,-0.223352,0.071823,-0.700708
28330,,4.080448,1.993395,8.798965,0.002742,0.006251,-0.022522,0.600098,-0.183838,0.665283,-0.673771,-0.223373,0.071829,-0.700698
28331,,4.095765,1.993387,8.829596,0.000736,0.011556,-0.019266,0.604492,-0.183594,0.663086,-0.673763,-0.223367,0.071826,-0.700708
28332,,4.077374,2.001394,8.859199,0.001623,0.009813,-0.021862,0.608887,-0.183594,0.665283,-0.673766,-0.223372,0.071824,-0.700704
28333,,4.059580,2.003375,8.829263,0.001296,0.009769,-0.019600,0.602295,-0.183594,0.663086,-0.673754,-0.223376,0.071824,-0.700714
28334,,4.067844,1.980045,8.902316,0.000468,0.009328,-0.020988,0.602539,-0.188232,0.663330,-0.673755,-0.223378,0.071829,-0.700712
28335,,4.053589,1.993554,8.851190,0.000468,0.009326,-0.020989,0.606689,-0.181396,0.663086,-0.673748,-0.223380,0.071831,-0.700718
28336,,4.072200,2.004995,8.860765,-0.001481,0.012450,-0.021717,0.606689,-0.183594,0.667480,-0.673754,-0.223365,0.071831,-0.700716
28337,,4.070726,2.005797,8.861261,0.000735,0.011544,-0.019273,0.602295,-0.179199,0.662842,-0.673747,-0.223360,0.071828,-0.700725
28338,,4.049274,1.996139,8.852582,0.001390,0.011624,-0.023804,0.602539,-0.188232,0.667725,-0.673758,-0.223359,0.071819,-0.700716
28339,,4.077884,1.977465,8.875357,0.000735,0.011540,-0.019276,0.604492,-0.181396,0.663086,-0.673754,-0.223352,0.071817,-0.700723
28340,,4.062907,1.996960,8.883800,-0.000092,0.011098,-0.020665,0.606689,-0.183594,0.667480,-0.673755,-0.223347,0.071818,-0.700723
28341,,4.065005,2.009411,8.863068,-0.000092,0.011096,-0.020666,0.606689,-0.183594,0.665283,-0.673755,-0.223340,0.071818,-0.700725
28342,,4.063571,2.010320,8.863519,0.001890,0.012015,-0.020156,0.602295,-0.183594,0.667480,-0.673752,-0.223338,0.071811,-0.700729
28343,,4.059347,1.993526,8.825624,0.000143,0.009270,-0.018734,0.606689,-0.183594,0.663086,-0.673744,-0.223338,0.071818,-0.700737
28344,,4.057975,1.994305,8.826079,0.000173,0.013313,-0.018951,0.604492,-0.183594,0.660889,-0.673739,-0.223325,0.071813,-0.700746
28345,,4.055873,2.001175,8.886066,0.000736,0.011529,-0.019283,0.604492,-0.181396,0.663086,-0.673728,-0.223320,0.071809,-0.700759
28346,,4.051648,1.984438,8.848167,0.001627,0.009785,-0.021879,0.602295,-0.181396,0.663086,-0.673731,-0.223325,0.071808,-0.700754
28347,,4.060156,2.026290,8.844515,-0.000091,0.011084,-0.020674,0.604492,-0.179199,0.660645,-0.673736,-0.223319,0.071809,-0.700751
28348,,4.052484,1.997852,8.827800,0.000473,0.009301,-0.021005,0.602539,-0.188232,0.661133,-0.673737,-0.223321,0.071814,-0.700749
28349,,4.057508,2.028015,8.845334,-0.000091,0.011080,-0.020676,0.604492,-0.181396,0.658691,-0.673733,-0.223316,0.071814,-0.700755
28350,,4.063394,1.980926,8.820688,0.000735,0.011520,-0.019288,0.604736,-0.185791,0.667480,-0.673728,-0.223311,0.071813,-0.700761
28351,,4.064829,1.999446,8.859450,-0.000090,0.011076,-0.020679,0.602295,-0.181396,0.665283,-0.673725,-0.223305,0.071812,-0.700766
28352,,4.077037,1.981727,8.851931,0.001065,0.011555,-0.021557,0.600098,-0.183838,0.665283,-0.673728,-0.223302,0.071807,-0.700765
28353,,4.061974,2.001257,8.860350,0.000735,0.011514,-0.019292,0.604492,-0.181396,0.665283,-0.673729,-0.223295,0.071806,-0.700766
28354,,4.060758,2.002278,8.860677,0.004409,0.007094,-0.019769,0.600098,-0.181396,0.665283,-0.673720,-0.223318,0.071806,-0.700767
28355,,4.063005,2.014808,8.839864,-0.002635,0.011924,-0.020867,0.604492,-0.179199,0.667236,-0.673732,-0.223300,0.071814,-0.700760
28356,,4.075291,1.996963,8.832355,0.001300,0.009728,-0.019625,0.602295,-0.183594,0.660889,-0.673728,-0.223303,0.071817,-0.700763
28357,,4.073976,1.997829,8.832765,-0.000915,0.010620,-0.022076,0.602295,-0.183594,0.660889,-0.673739,-0.223296,0.071821,-0.700754
28358,,4.072591,1.998656,8.833217,-0.000090,0.011061,-0.020688,0.602295,-0.181396,0.660889,-0.673740,-0.223291,0.071823,-0.700754
28359,,4.067771,1.987714,8.854851,-0.003224,0.009653,-0.020326,0.604736,-0.185791,0.667480,-0.673744,-0.223279,0.071840,-0.700753
28360,,4.059261,1.965162,8.897747,0.001583,0.015986,-0.018128,0.602295,-0.181396,0.665283,-0.673736,-0.223261,0.071822,-0.700768
28361,,4.071033,2.018543,8.873015,-0.002327,0.007907,-0.022924,0.606689,-0.178955,0.665039,-0.673746,-0.223258,0.071838,-0.700757
28362,,4.060012,1.978380,8.877470,0.000735,0.011498,-0.019302,0.599854,-0.179199,0.656494,-0.673742,-0.223254,0.071837,-0.700764
28363,,4.099251,1.994730,8.836752,0.001632,0.009753,-0.021899,0.602295,-0.179199,0.665039,-0.673754,-0.223258,0.071837,-0.700750
28364,,4.060911,1.991859,8.857068,0.000147,0.009233,-0.018757,0.600098,-0.183594,0.658936,-0.673747,-0.223259,0.071847,-0.700755
28365,,4.079598,2.003442,8.866624,0.001302,0.009712,-0.019635,0.604492,-0.185791,0.663330,-0.673749,-0.223262,0.071850,-0.700752
28366,,4.072096,1.974925,8.849901,-0.001244,0.010564,-0.019821,0.604492,-0.185791,0.663330,-0.673748,-0.223254,0.071858,-0.700755
28367,,4.056902,1.994375,8.858339,0.001654,0.013786,-0.022123,0.604492,-0.185791,0.663330,-0.673743,-0.223245,0.071839,-0.700765
28368,,4.059051,2.006944,8.837569,-0.000109,0.007001,-0.020481,0.604492,-0.179199,0.662842,-0.673742,-0.223253,0.071855,-0.700761
28369,,4.050886,1.984614,8.880247,0.003281,0.010632,-0.019124,0.600098,-0.179199,0.665039,-0.672706,-0.223491,0.071623,-0.701704
28370,,4.086585,1.989288,8.860776,-0.001811,0.012335,-0.019497,0.602539,-0.188232,0.665527,-0.672705,-0.223475,0.071628,-0.701709
28371,,4.051691,1.997893,8.859931,0.001047,0.007477,-0.021361,0.600098,-0.179199,0.662842,-0.672709,-0.223485,0.071636,-0.701702
28372,,4.067664,1.991869,8.831183,0.000735,0.011479,-0.019314,0.602295,-0.181396,0.658691,-0.672704,-0.223480,0.071635,-0.701708
28373,,4.082730,1.991885,8.861970,0.001303,0.009698,-0.019643,0.608887,-0.181152,0.665039,-0.672711,-0.223483,0.071640,-0.701700
28374,,4.061448,1.981962,8.853220,0.000167,0.013254,-0.018987,0.608887,-0.181152,0.660889,-0.672707,-0.223470,0.071636,-0.701709
28375,,4.049811,2.013000,8.840430,0.000481,0.009249,-0.021037,0.602539,-0.186035,0.665283,-0.672704,-0.223473,0.071639,-0.701710
28376,,4.058702,1.983754,8.854078,0.002713,0.012399,-0.018803,0.606689,-0.183594,0.656494,-0.672696,-0.223472,0.071629,-0.701719
28377,,4.077138,1.995468,8.863738,0.000735,0.011469,-0.019320,0.602295,-0.179199,0.667236,-0.672681,-0.223468,0.071624,-0.701735
28378,,4.072050,1.984506,8.885491,-0.002949,0.015874,-0.018852,0.604492,-0.185791,0.663330,-0.672681,-0.223435,0.071622,-0.701746
28379,,4.050602,1.974568,8.876810,0.004438,0.011098,-0.020011,0.604492,-0.181396,0.663086,-0.672678,-0.223443,0.071608,-0.701748
28380,,4.049212,1.975594,8.877216,0.000736,0.011464,-0.019323,0.602539,-0.186035,0.663330,-0.672673,-0.223439,0.071607,-0.701754
28381,,4.071178,1.998872,8.865711,-0.000908,0.010567,-0.022108,0.602295,-0.183594,0.667480,-0.672677,-0.223432,0.071610,-0.701752
28382,,4.049933,1.988900,8.856939,0.000736,0.011460,-0.019325,0.606689,-0.183594,0.658691,-0.672673,-0.223428,0.071609,-0.701758
28383,,4.082067,1.982045,8.858731,-0.000322,0.012823,-0.022660,0.604492,-0.179199,0.665039,-0.672677,-0.223416,0.071602,-0.701758
28384,,4.050539,2.002067,8.836747,-0.003551,0.009563,-0.018091,0.602295,-0.183594,0.665283,-0.672673,-0.223403,0.071623,-0.701764
28385,,4.082793,1.995144,8.838511,0.004690,0.013314,-0.018296,0.602539,-0.188232,0.663330,-0.672668,-0.223403,0.071604,-0.701771
28386,,4.058037,1.973774,8.850857,0.001641,0.009709,-0.021926,0.606689,-0.185791,0.663330,-0.672671,-0.223409,0.071603,-0.701766
28387,,4.062749,2.004053,8.868407,-0.000906,0.010554,-0.022117,0.602295,-0.179199,0.662842,-0.672662,-0.223403,0.071602,-0.701776
28388,,4.041599,1.994087,8.859579,0.001307,0.009671,-0.019660,0.602295,-0.181396,0.660889,-0.672657,-0.223407,0.071605,-0.701779
28389,,4.057579,1.988086,8.830904,-0.000085,0.010998,-0.020726,0.600342,-0.186035,0.663330,-0.672669,-0.223401,0.071609,-0.701770
28390,,4.092373,1.999123,8.870954,0.002797,0.010183,-0.022808,0.604492,-0.185791,0.663330,-0.672674,-0.223409,0.071601,-0.701763
28391,,4.057390,2.007732,8.870028,-0.001240,0.010512,-0.019853,0.602295,-0.179199,0.665039,-0.672665,-0.223401,0.071606,-0.701774
28392,,4.086144,1.989255,8.892982,0.001071,0.011474,-0.021607,0.604492,-0.183594,0.663086,-0.672668,-0.223398,0.071602,-0.701772
28393,,4.071927,2.002728,8.841807,0.003284,0.010594,-0.019149,0.604492,-0.179199,0.669434,-0.672666,-0.223404,0.071595,-0.701773
28394,,4.050614,1.992752,8.833050,-0.002049,0.014091,-0.021472,0.600098,-0.181396,0.658691,-0.672673,-0.223382,0.071593,-0.701774
28395,,4.065442,1.992831,8.863954,0.002464,0.010141,-0.020544,0.602295,-0.183594,0.665283,-0.672682,-0.223387,0.071591,-0.701764
28396,,4.064100,1.993768,8.864359,-0.000904,0.010533,-0.022129,0.606689,-0.183594,0.663086,-0.672689,-0.223381,0.071596,-0.701758
28397,,4.068683,2.023961,8.881957,-0.000084,0.010981,-0.020737,0.600098,-0.183838,0.663086,-0.672687,-0.223375,0.071596,-0.701762
28398,,4.055347,1.966131,8.848100,0.001072,0.011461,-0.021614,0.600342,-0.186035,0.663330,-0.672690,-0.223373,0.071591,-0.701760
28399,,4.043475,1.997215,8.835313,0.000499,0.013235,-0.021289,0.600342,-0.188232,0.663330,-0.672692,-0.223361,0.071581,-0.701763
28400,,4.092158,1.989811,8.867468,0.002457,0.006097,-0.020327,0.604492,-0.181396,0.658691,-0.672687,-0.223381,0.071591,-0.701760
28401,,4.040936,1.999158,8.836035,0.000498,0.013231,-0.021292,0.600342,-0.186035,0.665527,-0.672685,-0.223370,0.071581,-0.701767
28402,,4.055807,1.999116,8.866952,-0.003213,0.009555,-0.020385,0.600098,-0.183594,0.660889,-0.672688,-0.223359,0.071599,-0.701766
28403,,4.082212,1.963086,8.851579,0.003957,0.010640,-0.023700,0.602295,-0.183594,0.663086,-0.672694,-0.223369,0.071583,-0.701758
28404,,4.053075,2.001107,8.867753,-0.000902,0.010515,-0.022141,0.608887,-0.181152,0.663086,-0.672701,-0.223363,0.071588,-0.701753
28405,,4.045840,1.972656,8.851000,0.001647,0.009671,-0.021950,0.602295,-0.183594,0.658691,-0.672702,-0.223369,0.071585,-0.701751
28406,,4.053933,2.014727,8.847348,0.001647,0.009669,-0.021952,0.600342,-0.186035,0.663330,-0.672705,-0.223375,0.071584,-0.701746
28407,,4.080400,1.978659,8.831990,-0.001238,0.010477,-0.019874,0.602295,-0.181396,0.667236,-0.672700,-0.223367,0.071591,-0.701752
28408,,4.061575,1.986441,8.861479,0.003383,0.012405,-0.023380,0.604492,-0.179199,0.665039,-0.672707,-0.223369,0.071573,-0.701747
28409,,4.063587,1.999151,8.840758,0.000736,0.011407,-0.019358,0.602295,-0.183594,0.665283,-0.672714,-0.223363,0.071574,-0.701742
28410,,4.062243,2.000095,8.841162,0.001648,0.009661,-0.021957,0.604736,-0.187988,0.663330,-0.672717,-0.223369,0.071573,-0.701737
28411,,4.071322,1.970916,8.854854,-0.000082,0.010951,-0.020756,0.599854,-0.179199,0.656494,-0.672709,-0.223364,0.071571,-0.701747
28412,,4.072258,1.989557,8.893620,0.001891,0.011884,-0.020238,0.602295,-0.181396,0.663086,-0.672707,-0.223362,0.071564,-0.701750
28413,,4.037240,1.998015,8.892610,0.000494,0.009172,-0.021084,0.600098,-0.181396,0.663086,-0.672719,-0.223364,0.071572,-0.701738
28414,,4.069563,1.991451,8.894430,0.001891,0.011880,-0.020241,0.606689,-0.181152,0.660889,-0.672716,-0.223362,0.071564,-0.701741
28415,,4.075015,2.015728,8.852592,0.000497,0.013199,-0.021312,0.602295,-0.181396,0.658691,-0.672724,-0.223351,0.071557,-0.701738
28416,,4.064252,1.975478,8.857085,-0.001237,0.010457,-0.019886,0.604492,-0.179199,0.662842,-0.672723,-0.223343,0.071565,-0.701740
28417,,4.068699,2.005648,8.874693,0.000736,0.011392,-0.019368,0.604492,-0.183594,0.663086,-0.672726,-0.223339,0.071566,-0.701739
28418,,4.065008,1.988755,8.836818,-0.000898,0.010482,-0.022161,0.602295,-0.181396,0.663086,-0.672733,-0.223333,0.071571,-0.701734
28419,,4.063761,1.989709,8.837177,0.001412,0.007415,-0.023689,0.604492,-0.181396,0.663086,-0.672743,-0.223346,0.071575,-0.701720
28420,,4.078787,1.990083,8.867955,0.002468,0.010095,-0.020573,0.602539,-0.188232,0.656982,-0.672740,-0.223352,0.071572,-0.701720
28421,,4.080932,2.002698,8.847200,-0.000081,0.010930,-0.020769,0.600098,-0.181396,0.665283,-0.672733,-0.223348,0.071571,-0.701729
28422,,4.065559,2.022031,8.855502,0.001074,0.011411,-0.021646,0.606689,-0.185791,0.665283,-0.672736,-0.223345,0.071566,-0.701727
28423,,4.054973,1.981900,8.859903,0.000497,0.009152,-0.021097,0.606689,-0.181396,0.663086,-0.672737,-0.223348,0.071570,-0.701726
28424,,4.062822,2.023814,8.856350,0.000157,0.013152,-0.019051,0.604492,-0.185791,0.661133,-0.672732,-0.223335,0.071566,-0.701734
28425,,4.055660,1.995323,8.839633,0.001653,0.009631,-0.021975,0.602295,-0.181396,0.665283,-0.672729,-0.223341,0.071563,-0.701736
28426,,4.064822,1.966170,8.853342,-0.000897,0.010464,-0.022172,0.600098,-0.186035,0.661133,-0.672736,-0.223336,0.071568,-0.701731
28427,,4.065802,1.984878,8.892023,0.003049,0.008309,-0.020906,0.606689,-0.183594,0.663086,-0.672734,-0.223350,0.071567,-0.701728
28428,,4.065832,1.979898,8.832863,0.002470,0.010081,-0.020583,0.604492,-0.179199,0.662842,-0.672732,-0.223356,0.071563,-0.701728
28429,,4.050548,1.999349,8.841067,0.001654,0.009623,-0.021980,0.600098,-0.183594,0.658936,-0.672736,-0.223362,0.071561,-0.701722
28430,,4.045659,1.988759,8.862623,0.003046,0.012333,-0.021136,0.606689,-0.178955,0.665039,-0.672736,-0.223363,0.071547,-0.701724
28431,,4.083691,2.011748,8.881669,0.000975,0.009564,-0.017437,0.606689,-0.185791,0.663330,-0.672728,-0.223364,0.071554,-0.701730
28432,,4.043087,1.990570,8.863391,0.001315,0.009590,-0.019711,0.606689,-0.183594,0.665283,-0.672724,-0.223368,0.071557,-0.701733
28433,,4.082431,2.007656,8.822917,0.003966,0.010581,-0.023738,0.597900,-0.181641,0.663086,-0.672720,-0.223380,0.071539,-0.701734
28434,,4.063739,2.015388,8.852231,-0.000415,0.006847,-0.018286,0.602295,-0.181396,0.660889,-0.672712,-0.223387,0.071559,-0.701738
28435,,4.056755,1.986669,8.835516,-0.002056,0.013988,-0.021536,0.600098,-0.181396,0.667480,-0.672728,-0.223364,0.071558,-0.701730
28436,,4.057365,2.005256,8.874362,0.001890,0.011838,-0.020267,0.598145,-0.186035,0.667480,-0.672726,-0.223362,0.071551,-0.701733
28437,,4.084109,1.969369,8.859102,-0.000654,0.008640,-0.020238,0.602295,-0.181396,0.660889,-0.672733,-0.223361,0.071564,-0.701726
28438,,4.051385,1.995228,8.896286,0.000161,0.009096,-0.018842,0.602295,-0.183594,0.669678,-0.672727,-0.223362,0.071573,-0.701730
28439,,4.067519,1.989371,8.867745,0.000495,0.013147,-0.021344,0.604736,-0.185791,0.665283,-0.672735,-0.223351,0.071565,-0.701727
28440,,4.066262,1.990119,8.868154,-0.000753,0.006811,-0.016018,0.602295,-0.183594,0.660889,-0.672719,-0.223356,0.071589,-0.701738
28441,,4.068439,2.002450,8.847451,-0.000428,0.014890,-0.018749,0.604492,-0.183594,0.669678,-0.672709,-0.223335,0.071579,-0.701756
28442,,4.072693,2.032840,8.865023,0.004451,0.006971,-0.019848,0.602295,-0.179199,0.665039,-0.672700,-0.223359,0.071579,-0.701756
28443,,4.026539,1.982199,8.829528,-0.002630,0.011714,-0.020995,0.600098,-0.183838,0.667480,-0.672714,-0.223341,0.071588,-0.701748
28444,,4.084152,2.016161,8.858010,0.001318,0.009569,-0.019724,0.606689,-0.183594,0.658691,-0.672709,-0.223346,0.071591,-0.701750
28445,,4.059773,1.994333,8.870180,0.001318,0.009567,-0.019725,0.600098,-0.181396,0.663086,-0.672703,-0.223349,0.071592,-0.701755
28446,,4.061992,2.006991,8.849385,0.001660,0.009590,-0.022001,0.606689,-0.183594,0.663086,-0.672706,-0.223355,0.071591,-0.701751
28447,,4.060680,2.007869,8.849788,-0.000420,0.010851,-0.018528,0.604492,-0.181396,0.663086,-0.672701,-0.223348,0.071597,-0.701757
28448,,4.078895,2.019688,8.859629,-0.001474,0.012186,-0.021878,0.600098,-0.183838,0.663086,-0.672708,-0.223335,0.071598,-0.701754
28449,,4.034680,1.986642,8.862555,0.000736,0.011331,-0.019406,0.600342,-0.186035,0.663330,-0.672707,-0.223330,0.071598,-0.701757
28450,,4.083197,1.979753,8.895015,0.003288,0.010502,-0.019208,0.600098,-0.186035,0.661133,-0.672699,-0.223337,0.071591,-0.701763
28451,,4.055022,2.011293,8.851604,-0.000661,0.012639,-0.020484,0.606689,-0.183594,0.665283,-0.672695,-0.223323,0.071587,-0.701771
28452,,4.078239,1.963810,8.857624,0.001891,0.011809,-0.020286,0.604492,-0.181396,0.665283,-0.672693,-0.223322,0.071580,-0.701775
28453,,4.082428,1.994202,8.875198,0.000507,0.009093,-0.021133,0.604492,-0.179199,0.662842,-0.672694,-0.223325,0.071585,-0.701772
28454,,4.065027,1.995763,8.845040,0.002475,0.010035,-0.020612,0.602539,-0.186035,0.663330,-0.672692,-0.223332,0.071581,-0.701773
28455,,4.049672,2.015021,8.853206,0.000977,0.009526,-0.017462,0.602295,-0.183594,0.665283,-0.672681,-0.223333,0.071587,-0.701782
28456,,4.042966,1.986416,8.836395,-0.000304,0.008627,-0.022536,0.604736,-0.185791,0.665283,-0.672687,-0.223336,0.071596,-0.701774
28457,,4.091525,1.979510,8.868890,0.000736,0.011316,-0.019416,0.600098,-0.183594,0.660889,-0.672679,-0.223332,0.071593,-0.701783
28458,,4.045718,2.017702,8.854403,0.001422,0.011361,-0.023968,0.606689,-0.181396,0.665039,-0.672690,-0.223332,0.071585,-0.701774
28459,,4.054998,1.988701,8.868152,0.001321,0.009542,-0.019741,0.604492,-0.179199,0.667236,-0.672687,-0.223335,0.071587,-0.701775
28460,,4.053759,1.989618,8.868513,0.001321,0.009540,-0.019743,0.604492,-0.183594,0.665283,-0.672683,-0.223340,0.071590,-0.701778
28461,,4.070140,1.983908,8.839930,0.001321,0.009538,-0.019744,0.602295,-0.181396,0.665283,-0.672685,-0.223343,0.071593,-0.701775
28462,,4.031618,1.980273,8.859892,-0.000076,0.010845,-0.020822,0.606689,-0.185791,0.661133,-0.672686,-0.223338,0.071596,-0.701775
28463,,4.070997,1.997411,8.819580,0.000854,0.009096,-0.023422,0.598145,-0.188232,0.665527,-0.672691,-0.223344,0.071596,-0.701768
28464,,4.052121,2.004771,8.848924,-0.001919,0.010312,-0.015396,0.602539,-0.188232,0.663330,-0.672676,-0.223333,0.071613,-0.701785
28465,,4.050966,2.005489,8.849290,0.001908,0.007762,-0.020070,0.600098,-0.181396,0.658691,-0.672660,-0.223345,0.071615,-0.701796
28466,,4.080038,1.987665,8.872357,0.001666,0.009552,-0.022025,0.606689,-0.185791,0.663330,-0.672663,-0.223351,0.071614,-0.701791
28467,,4.059188,1.977536,8.863320,0.000044,0.008625,-0.024827,0.606689,-0.183594,0.665283,-0.672675,-0.223356,0.071617,-0.701778
28468,,4.057874,1.978461,8.863715,-0.000076,0.010833,-0.020830,0.604492,-0.185791,0.663330,-0.672676,-0.223351,0.071620,-0.701778
28469,,4.083000,2.013922,8.831253,0.001080,0.011315,-0.021707,0.606934,-0.187988,0.665527,-0.672672,-0.223349,0.071612,-0.701783
28470,,4.058548,1.991968,8.843446,-0.000076,0.010829,-0.020832,0.600098,-0.183594,0.660889,-0.672673,-0.223345,0.071615,-0.701783
28471,,4.096310,2.015155,8.862683,-0.000886,0.010363,-0.022234,0.604736,-0.185791,0.665283,-0.672671,-0.223339,0.071617,-0.701786
28472,,4.052406,1.981976,8.865431,0.001323,0.009519,-0.019756,0.602051,-0.179199,0.656494,-0.672667,-0.223344,0.071620,-0.701789
28473,,4.074294,2.005792,8.854002,0.000290,0.006822,-0.022881,0.604492,-0.183594,0.663086,-0.672674,-0.223355,0.071631,-0.701777
28474,,4.037512,1.996232,8.814322,0.005842,0.009643,-0.019031,0.604492,-0.185791,0.663330,-0.672662,-0.223374,0.071619,-0.701784
28475,,4.048885,1.984942,8.866377,-0.004006,0.008922,-0.021889,0.604736,-0.185791,0.665283,-0.672664,-0.223363,0.071638,-0.701784
28476,,4.070609,2.008521,8.855078,-0.000076,0.010816,-0.020840,0.600098,-0.181396,0.663086,-0.672665,-0.223359,0.071640,-0.701783
28477,,4.046212,1.986462,8.867256,-0.000075,0.010814,-0.020841,0.606934,-0.187988,0.663330,-0.672668,-0.223353,0.071641,-0.701783
28478,,4.067833,2.010265,8.855958,0.000270,0.010833,-0.023120,0.604492,-0.183594,0.665283,-0.672677,-0.223351,0.071640,-0.701775
28479,,4.068419,2.029015,8.894639,0.001912,0.007739,-0.020086,0.602295,-0.181396,0.665283,-0.672661,-0.223364,0.071642,-0.701786
28480,,4.060063,1.982611,8.839494,-0.001231,0.010323,-0.019969,0.608887,-0.181152,0.660889,-0.672660,-0.223357,0.071652,-0.701788
28481,,4.024918,1.990317,8.838326,-0.001820,0.012089,-0.019649,0.604492,-0.181396,0.665283,-0.672663,-0.223341,0.071657,-0.701790
28482,,4.076951,1.995299,8.849797,0.000295,0.006804,-0.022893,0.606689,-0.185791,0.663330,-0.672670,-0.223353,0.071669,-0.701778
28483,,4.056247,1.984897,8.840733,-0.002040,0.009852,-0.021375,0.602295,-0.183594,0.667480,-0.672671,-0.223345,0.071679,-0.701778
28484,,4.074467,1.996822,8.850597,-0.001231,0.010316,-0.019974,0.600342,-0.186035,0.665527,-0.672671,-0.223338,0.071688,-0.701780
28485,,4.069660,1.985884,8.872181,-0.000884,0.010333,-0.022253,0.606689,-0.185791,0.665283,-0.672678,-0.223332,0.071692,-0.701774
28486,,4.091333,2.009758,8.860861,0.000862,0.009049,-0.023452,0.602295,-0.179199,0.662842,-0.672687,-0.223337,0.071694,-0.701764
28487,,4.051002,1.988157,8.842405,0.000387,0.011241,-0.017173,0.606689,-0.181152,0.660889,-0.672677,-0.223331,0.071697,-0.701775
28488,,4.060500,1.959272,8.856147,0.004573,0.008713,-0.024126,0.606689,-0.185791,0.665283,-0.672684,-0.223351,0.071686,-0.701763
28489,,4.067911,2.001567,8.852541,-0.000883,0.010324,-0.022259,0.604492,-0.183594,0.665283,-0.672685,-0.223346,0.071689,-0.701763
28490,,4.080772,1.984072,8.845272,-0.001821,0.012070,-0.019661,0.604492,-0.183594,0.663086,-0.672685,-0.223331,0.071695,-0.701768
28491,,4.061739,1.991459,8.874561,0.001456,0.007271,-0.023780,0.604492,-0.181396,0.663086,-0.672692,-0.223345,0.071699,-0.701756
28492,,4.063932,2.004204,8.853772,0.001081,0.011269,-0.021737,0.602295,-0.179199,0.662842,-0.672695,-0.223343,0.071695,-0.701754
28493,,4.059135,1.993438,8.875308,0.000517,0.009015,-0.021183,0.599854,-0.177002,0.662842,-0.672706,-0.223346,0.071702,-0.701742
28494,,4.061275,2.006090,8.854564,0.001081,0.011265,-0.021739,0.604736,-0.187988,0.658936,-0.672710,-0.223344,0.071698,-0.701739
28495,,4.067163,1.965325,8.889577,-0.001474,0.012076,-0.021947,0.602295,-0.179199,0.669434,-0.672720,-0.223330,0.071700,-0.701734
28496,,4.058319,2.007843,8.855522,0.002696,0.012196,-0.018936,0.606689,-0.183594,0.660889,-0.672712,-0.223330,0.071690,-0.701743
28497,,4.057097,2.008934,8.855835,0.002860,0.005960,-0.022706,0.604492,-0.181396,0.663086,-0.672721,-0.223352,0.071697,-0.701726
28498,,4.050686,1.980591,8.838956,0.003044,0.012209,-0.021218,0.604492,-0.185791,0.663330,-0.672721,-0.223353,0.071683,-0.701728
28499,,4.052825,1.993250,8.818213,-0.000636,0.008517,-0.020315,0.604492,-0.183594,0.660889,-0.672717,-0.223354,0.071694,-0.701729
28500,,4.083619,1.993321,8.879750,0.000868,0.009018,-0.023472,0.604492,-0.185791,0.663330,-0.672726,-0.223360,0.071696,-0.701719
28501,,4.052021,2.012968,8.857242,0.001675,0.009484,-0.022069,0.600098,-0.183838,0.665283,-0.672723,-0.223367,0.071693,-0.701721
28502,,4.068455,2.007499,8.828764,0.001081,0.011248,-0.021750,0.604736,-0.187988,0.661133,-0.672726,-0.223365,0.071689,-0.701718
28503,,4.049159,2.014914,8.858109,-0.000319,0.012542,-0.022835,0.606689,-0.183594,0.660889,-0.672728,-0.223354,0.071681,-0.701720
28504,,4.039226,1.974698,8.862447,0.002270,0.007712,-0.022394,0.602295,-0.183594,0.663086,-0.672731,-0.223369,0.071684,-0.701712
28505,,4.094635,1.991976,8.852854,0.001431,0.011257,-0.024035,0.604492,-0.179199,0.660645,-0.672739,-0.223369,0.071674,-0.701706
28506,,4.073909,1.981702,8.843744,0.001921,0.007692,-0.020116,0.602295,-0.183594,0.654541,-0.672734,-0.223382,0.071681,-0.701706
28507,,4.058311,2.000857,8.851822,0.000276,0.010767,-0.023162,0.606689,-0.183594,0.660889,-0.672745,-0.223380,0.071680,-0.701696
28508,,4.087298,1.983306,8.875096,0.001677,0.009469,-0.022079,0.606934,-0.187988,0.658936,-0.672749,-0.223387,0.071679,-0.701691
28509,,4.070045,1.984735,8.844843,0.001677,0.009467,-0.022080,0.600098,-0.186035,0.661133,-0.672736,-0.223394,0.071674,-0.701701
28510,,4.070323,2.003481,8.883567,0.000732,0.011215,-0.019481,0.602295,-0.181396,0.658691,-0.672732,-0.223391,0.071673,-0.701706
28511,,4.067248,1.986566,8.845719,-0.000319,0.012522,-0.022848,0.604492,-0.181396,0.665283,-0.672740,-0.223380,0.071668,-0.701702
28512,,4.048014,1.993921,8.875007,0.001328,0.009446,-0.019803,0.609131,-0.187988,0.665527,-0.672736,-0.223384,0.071671,-0.701704
28513,,4.077011,1.976176,8.898346,-0.001825,0.012017,-0.019694,0.602295,-0.183594,0.660889,-0.672727,-0.223369,0.071673,-0.701717
28514,,4.063196,1.989196,8.846989,0.002625,0.007708,-0.024687,0.604492,-0.179199,0.665039,-0.672738,-0.223386,0.071673,-0.701702
28515,,4.076280,1.972159,8.839628,0.001887,0.011691,-0.020364,0.602295,-0.181396,0.663086,-0.672742,-0.223384,0.071666,-0.701699
28516,,4.076478,1.990986,8.878352,0.002484,0.009924,-0.020684,0.604492,-0.179199,0.662842,-0.672740,-0.223392,0.071663,-0.701699
28517,,4.055783,1.980669,8.869221,0.001679,0.009451,-0.022091,0.608887,-0.181152,0.665039,-0.672753,-0.223397,0.071664,-0.701685
28518,,4.080756,2.016502,8.836829,0.001083,0.011213,-0.021773,0.608887,-0.183594,0.669678,-0.672756,-0.223396,0.071660,-0.701683
28519,,4.090276,1.987624,8.850696,0.001083,0.011211,-0.021774,0.606689,-0.181396,0.667236,-0.672757,-0.223394,0.071653,-0.701683
28520,,4.037029,2.001695,8.878260,-0.001720,0.013792,-0.023948,0.606689,-0.183594,0.660889,-0.672772,-0.223375,0.071648,-0.701675
28521,,4.072758,2.007509,8.859434,0.000732,0.011193,-0.019495,0.604492,-0.181396,0.660889,-0.672766,-0.223371,0.071646,-0.701683
28522,,4.066481,1.978690,8.842681,-0.003186,0.009274,-0.020556,0.600342,-0.188232,0.661133,-0.672769,-0.223361,0.071665,-0.701681
28523,,4.065300,1.979530,8.843036,0.003084,0.008148,-0.021012,0.600098,-0.179199,0.660645,-0.672761,-0.223377,0.071663,-0.701683
28524,,4.065546,1.998317,8.881718,-0.000072,0.010715,-0.020905,0.602295,-0.183594,0.665283,-0.672763,-0.223373,0.071666,-0.701683
28525,,4.067573,2.011025,8.861019,0.002239,0.011685,-0.022658,0.600098,-0.183594,0.660889,-0.672778,-0.223372,0.071656,-0.701670
28526,,4.027393,1.989177,8.842444,-0.000875,0.010237,-0.022314,0.602295,-0.183594,0.665283,-0.672785,-0.223368,0.071662,-0.701664
28527,,4.064787,2.012837,8.861886,-0.000071,0.010708,-0.020909,0.600342,-0.186035,0.663330,-0.672789,-0.223363,0.071664,-0.701662
28528,,4.058467,1.984217,8.845124,0.001084,0.011192,-0.021786,0.606689,-0.178955,0.665039,-0.672792,-0.223361,0.071660,-0.701659
28529,,4.079892,2.008288,8.833939,0.000732,0.011178,-0.019505,0.600098,-0.183838,0.665283,-0.672791,-0.223357,0.071659,-0.701662
28530,,4.050826,1.956565,8.828761,0.003290,0.010373,-0.019295,0.602295,-0.183594,0.663086,-0.672783,-0.223365,0.071653,-0.701667
28531,,4.078768,2.027983,8.873021,-0.001429,0.007977,-0.021763,0.604492,-0.181396,0.663086,-0.672791,-0.223365,0.071668,-0.701659
28532,,4.056783,1.999584,8.825534,0.001332,0.009409,-0.019827,0.600098,-0.179199,0.660645,-0.672786,-0.223370,0.071672,-0.701661
28533,,4.037634,2.006866,8.854699,0.000530,0.008933,-0.021235,0.600098,-0.181396,0.660889,-0.672798,-0.223373,0.071679,-0.701648
28534,,4.070165,2.001093,8.856930,0.000732,0.011168,-0.019511,0.604492,-0.183594,0.669678,-0.672794,-0.223369,0.071679,-0.701652
28535,,4.067450,1.984177,8.819001,0.001332,0.009404,-0.019831,0.604736,-0.187988,0.661133,-0.672796,-0.223373,0.071683,-0.701650
28536,,4.048136,1.991392,8.848246,0.000132,0.012927,-0.019195,0.604492,-0.181396,0.658691,-0.672792,-0.223361,0.071679,-0.701657
28537,,4.099864,1.997258,8.860047,0.002394,0.009435,-0.026683,0.602295,-0.185791,0.661133,-0.672801,-0.223372,0.071668,-0.701646
28538,,4.068110,2.016700,8.837455,0.000732,0.011160,-0.019516,0.602295,-0.183594,0.665283,-0.672797,-0.223369,0.071668,-0.701651
28539,,4.056375,1.982348,8.901279,-0.000069,0.010683,-0.020925,0.604492,-0.181396,0.660889,-0.672796,-0.223364,0.071669,-0.701654
28540,,4.079846,2.000387,8.830658,0.001086,0.011168,-0.021802,0.604492,-0.185791,0.658936,-0.672799,-0.223363,0.071665,-0.701651
28541,,4.056984,1.995812,8.881062,-0.001025,0.012430,-0.018326,0.602295,-0.183594,0.663086,-0.672788,-0.223349,0.071666,-0.701666
28542,,4.054144,1.978708,8.843253,-0.001472,0.011963,-0.022019,0.608887,-0.181152,0.665039,-0.672796,-0.223336,0.071668,-0.701663
28543,,4.068516,1.979213,8.874431,-0.001471,0.011961,-0.022020,0.597900,-0.183838,0.665283,-0.672803,-0.223323,0.071669,-0.701659
28544,,4.067207,1.980154,8.874822,0.002292,0.007637,-0.022443,0.606689,-0.183594,0.660889,-0.672807,-0.223339,0.071672,-0.701651
28545,,4.069411,1.992880,8.854047,0.000733,0.011147,-0.019525,0.606689,-0.185791,0.661133,-0.672803,-0.223334,0.071671,-0.701656
28546,,4.071674,2.005654,8.833235,0.004497,0.006825,-0.019947,0.602295,-0.183594,0.663086,-0.672794,-0.223359,0.071672,-0.701656
28547,,4.063520,1.983163,8.875839,-0.001471,0.011951,-0.022026,0.604492,-0.183594,0.656738,-0.672795,-0.223346,0.071672,-0.701660
28548,,4.047509,2.002097,8.883970,0.001888,0.011628,-0.020405,0.600098,-0.183594,0.660889,-0.672793,-0.223346,0.071665,-0.701663
28549,,4.083375,2.008279,8.865169,0.001088,0.011149,-0.021814,0.606689,-0.181396,0.663086,-0.672793,-0.223344,0.071660,-0.701663
28550,,4.062780,1.997658,8.856016,0.000181,0.008890,-0.018973,0.600098,-0.181396,0.656494,-0.672787,-0.223347,0.071670,-0.701667
