// Start Time: Unknown
// Update Rate: 100.0Hz
// Filter Profile: human (46.1)
// Option Flags: AHS Disabled ICC Disabled 
// Firmware Version: 4.3.4
PacketCounter,SampleTimeFine,Acc_X,Acc_Y,Acc_Z,Gyr_X,Gyr_Y,Gyr_Z,Mag_X,Mag_Y,Mag_Z,Quat_q0,Quat_q1,Quat_q2,Quat_q3
27626,,9.603075,1.055855,-1.703874,0.022553,0.029555,0.003162,1.031738,-0.222900,-0.240234,-0.467107,-0.584215,0.500770,-0.435583
27627,,9.625386,1.117830,-1.781890,0.024851,0.008187,0.000603,1.036377,-0.218506,-0.240479,-0.467028,-0.584258,0.500736,-0.435650
27628,,9.676507,1.085563,-1.747406,0.013425,0.007122,0.000413,1.034180,-0.225098,-0.246582,-0.466988,-0.584272,0.500721,-0.435690
27629,,9.627901,1.057602,-1.699635,-0.001592,0.009243,0.000049,1.029541,-0.222900,-0.238037,-0.466991,-0.584252,0.500741,-0.435692
27630,,9.575440,1.086292,-1.698409,-0.012880,0.007364,-0.002140,1.033936,-0.220703,-0.242432,-0.467030,-0.584214,0.500773,-0.435664
27631,,9.602563,1.074337,-1.715283,-0.007732,-0.000073,-0.006105,1.031738,-0.220703,-0.238037,-0.467040,-0.584215,0.500809,-0.435609
27632,,9.653842,1.065456,-1.730888,0.003663,0.005981,-0.010003,1.033936,-0.220703,-0.238281,-0.467049,-0.584236,0.500789,-0.435597
27633,,9.703734,1.053054,-1.710929,0.004759,0.026905,-0.005969,1.029297,-0.218506,-0.240234,-0.467090,-0.584207,0.500735,-0.435652
27634,,9.674208,1.081370,-1.671725,0.008756,0.039014,-0.005519,1.031738,-0.222900,-0.235840,-0.467158,-0.584155,0.500641,-0.435758
27635,,9.650670,1.078534,-1.669302,0.016235,0.043763,0.001196,1.027344,-0.225342,-0.240234,-0.467192,-0.584098,0.500544,-0.435909
27636,,9.651428,1.078217,-1.665121,0.013874,0.046247,0.000184,1.034180,-0.225098,-0.235840,-0.467243,-0.584035,0.500430,-0.436070
27637,,9.625485,1.112654,-1.693418,0.013879,0.046237,0.000187,1.031738,-0.222900,-0.235840,-0.467292,-0.583969,0.500330,-0.436219
27638,,9.580762,1.091631,-1.710902,-0.000740,0.042852,-0.002793,1.031738,-0.222900,-0.240234,-0.467384,-0.583888,0.500245,-0.436328
27639,,9.600298,1.147753,-1.717239,-0.013753,0.051012,-0.002948,1.031982,-0.225098,-0.240234,-0.467533,-0.583755,0.500185,-0.436415
27640,,9.605413,1.114231,-1.714879,-0.022203,0.059975,-0.003159,1.034180,-0.222900,-0.236084,-0.467733,-0.583583,0.500112,-0.436515
27641,,9.582237,1.112050,-1.710218,-0.024699,0.063261,-0.002171,1.036377,-0.222900,-0.236084,-0.467942,-0.583396,0.500049,-0.436612
27642,,9.564557,1.057211,-1.692616,-0.024819,0.072079,-0.007642,1.031982,-0.225098,-0.238037,-0.468190,-0.583204,0.499937,-0.436731
27643,,9.565619,1.058462,-1.685822,-0.038182,0.063012,-0.007392,1.029297,-0.218506,-0.242432,-0.468450,-0.582999,0.499889,-0.436781
27644,,9.596700,1.032077,-1.716014,-0.051240,0.047345,-0.007063,1.029541,-0.222900,-0.235840,-0.468716,-0.582792,0.499903,-0.436757
27645,,9.653544,1.012203,-1.780500,-0.045668,0.029456,-0.009546,1.036377,-0.220703,-0.233887,-0.468918,-0.582648,0.499944,-0.436685
27646,,9.725860,1.000039,-1.722966,-0.031629,0.023362,-0.008910,1.034180,-0.222900,-0.238037,-0.469067,-0.582547,0.499960,-0.436640
27647,,9.745546,1.015829,-1.665537,-0.029809,0.027160,-0.003281,1.033936,-0.220703,-0.231689,-0.469204,-0.582430,0.499989,-0.436616
27648,,9.639362,1.028972,-1.562935,-0.031913,0.024969,-0.004907,1.033936,-0.218506,-0.233887,-0.469349,-0.582315,0.500013,-0.436586
27649,,9.630541,1.075809,-1.504009,-0.034109,0.021659,-0.003843,1.036377,-0.222900,-0.233887,-0.469486,-0.582201,0.500063,-0.436534
27650,,9.628989,1.073433,-1.466835,-0.034223,0.030486,-0.009301,1.031738,-0.220703,-0.236084,-0.469662,-0.582080,0.500067,-0.436502
27651,,9.637344,1.047886,-1.535303,-0.021533,0.033926,-0.013287,1.034180,-0.222900,-0.229492,-0.469813,-0.581992,0.500033,-0.436495
27652,,9.669641,1.066378,-1.666590,-0.001654,0.051757,-0.013981,1.036377,-0.220703,-0.233887,-0.469956,-0.581914,0.499899,-0.436598
27653,,9.670489,1.067339,-1.661043,0.010054,0.063901,-0.007343,1.031738,-0.222900,-0.229492,-0.470077,-0.581820,0.499744,-0.436771
27654,,9.693741,1.067146,-1.618939,0.007610,0.065245,-0.005662,1.031494,-0.216309,-0.229736,-0.470207,-0.581714,0.499581,-0.436958
27655,,9.674734,1.030437,-1.618164,0.005621,0.054221,-0.001834,1.029541,-0.222900,-0.227295,-0.470305,-0.581617,0.499474,-0.437104
27656,,9.666919,1.099047,-1.607168,0.004371,0.039162,-0.008008,1.029541,-0.220703,-0.229492,-0.470388,-0.581564,0.499377,-0.437198
27657,,9.661286,1.130185,-1.565496,-0.014607,0.044892,-0.001928,1.033936,-0.220703,-0.233887,-0.470521,-0.581440,0.499335,-0.437266
27658,,9.590493,1.103453,-1.550720,-0.023419,0.041628,-0.005851,1.029541,-0.225098,-0.229492,-0.470686,-0.581309,0.499301,-0.437302
27659,,9.597339,1.073784,-1.584177,-0.025618,0.038320,-0.004794,1.034180,-0.222900,-0.229492,-0.470841,-0.581181,0.499290,-0.437317
27660,,9.616857,1.089684,-1.525352,-0.036681,0.038649,-0.012427,1.034180,-0.222900,-0.231689,-0.471045,-0.581049,0.499265,-0.437303
27661,,9.664568,1.116069,-1.533141,-0.033244,0.041254,-0.014311,1.031738,-0.218506,-0.227539,-0.471250,-0.580920,0.499236,-0.437285
27662,,9.646099,1.103250,-1.583644,-0.028784,0.040945,-0.011651,1.031738,-0.220703,-0.231689,-0.471440,-0.580794,0.499196,-0.437293
27663,,9.669674,1.126601,-1.593149,-0.018286,0.041093,-0.014548,1.036377,-0.220703,-0.225342,-0.471603,-0.580701,0.499135,-0.437312
27664,,9.617521,1.156484,-1.589239,-0.013829,0.040789,-0.011888,1.034180,-0.222900,-0.225342,-0.471749,-0.580612,0.499060,-0.437357
27665,,9.646499,1.126456,-1.586889,-0.002311,0.038030,-0.010241,1.033936,-0.220703,-0.227539,-0.471847,-0.580553,0.498983,-0.437417
27666,,9.622803,1.124533,-1.585064,0.002297,0.036923,-0.009580,1.031738,-0.220703,-0.231689,-0.471928,-0.580508,0.498885,-0.437501
27667,,9.668386,1.146198,-1.559505,0.008126,0.030177,-0.005690,1.036133,-0.216309,-0.225342,-0.471967,-0.580480,0.498817,-0.437575
27668,,9.675224,1.116158,-1.594303,-0.004468,0.027832,-0.004439,1.033936,-0.218506,-0.225342,-0.472041,-0.580419,0.498779,-0.437619
27669,,9.698742,1.097298,-1.539837,-0.014751,0.029897,-0.006924,1.036133,-0.214111,-0.223389,-0.472148,-0.580340,0.498759,-0.437632
27670,,9.698026,1.075970,-1.487074,-0.030566,0.027164,-0.009173,1.038574,-0.218506,-0.227539,-0.472309,-0.580230,0.498765,-0.437597
27671,,9.699419,1.058329,-1.468693,-0.030669,0.026039,-0.006482,1.036377,-0.218506,-0.223145,-0.472451,-0.580120,0.498790,-0.437560
27672,,9.626089,1.069275,-1.487339,-0.020193,0.016281,-0.001244,1.036133,-0.216309,-0.225342,-0.472533,-0.580042,0.498818,-0.437542
27673,,9.651597,1.053884,-1.467945,-0.013371,0.023438,-0.005685,1.038574,-0.220703,-0.220947,-0.472618,-0.579978,0.498813,-0.437543
27674,,9.628813,1.032750,-1.451816,-0.006715,0.026438,-0.004064,1.041016,-0.220459,-0.223145,-0.472691,-0.579918,0.498778,-0.437584
27675,,9.657786,1.043311,-1.515434,0.003126,0.036703,-0.003689,1.031494,-0.216309,-0.225342,-0.472756,-0.579858,0.498711,-0.437668
27676,,9.678236,1.080482,-1.506191,0.000172,0.047340,-0.000762,1.034180,-0.222900,-0.225342,-0.472855,-0.579759,0.498623,-0.437793
27677,,9.628487,1.112664,-1.536170,-0.007801,0.048844,-0.002921,1.036377,-0.225098,-0.220947,-0.472980,-0.579645,0.498554,-0.437888
27678,,9.634640,1.101409,-1.585052,-0.011916,0.035684,-0.000782,1.036377,-0.220703,-0.223145,-0.473075,-0.579552,0.498509,-0.437960
27679,,9.586691,1.095902,-1.586284,-0.004012,0.015465,-0.002299,1.036377,-0.222900,-0.225342,-0.473105,-0.579518,0.498512,-0.437968
27680,,9.664835,1.093332,-1.632847,-0.000961,0.000988,-0.003854,1.036133,-0.216309,-0.225342,-0.473093,-0.579530,0.498521,-0.437954
27681,,9.677848,1.119668,-1.525059,-0.003077,-0.006144,-0.001444,1.031738,-0.220703,-0.223145,-0.473065,-0.579544,0.498576,-0.437905
27682,,9.720595,1.137157,-1.468427,-0.008086,0.000396,0.000521,1.038574,-0.220703,-0.229492,-0.473068,-0.579524,0.498623,-0.437874
27683,,9.603128,1.107880,-1.495883,-0.025608,0.012577,-0.003717,1.031738,-0.218506,-0.227539,-0.473157,-0.579449,0.498676,-0.437817
27684,,9.604314,1.089711,-1.479005,-0.017521,0.012179,-0.004237,1.031494,-0.216309,-0.225342,-0.473227,-0.579392,0.498704,-0.437785
27685,,9.628621,1.093237,-1.475727,-0.012965,0.013005,-0.004256,1.029297,-0.214111,-0.227539,-0.473281,-0.579347,0.498727,-0.437760
27686,,9.704619,1.087349,-1.487093,-0.009777,0.020264,-0.005495,1.033936,-0.220703,-0.223145,-0.473360,-0.579287,0.498723,-0.437759
27687,,9.676419,1.119096,-1.483167,-0.011458,0.028299,-0.002712,1.036377,-0.220703,-0.225342,-0.473444,-0.579208,0.498711,-0.437785
27688,,9.658307,1.105245,-1.534758,-0.018699,0.038410,-0.004447,1.036377,-0.220703,-0.225342,-0.473580,-0.579096,0.498671,-0.437832
27689,,9.636892,1.106644,-1.567621,-0.018264,0.026087,-0.002340,1.038574,-0.218506,-0.223145,-0.473677,-0.579006,0.498680,-0.437836
27690,,9.643808,1.076814,-1.603251,-0.015213,0.011619,-0.003905,1.036377,-0.220703,-0.227539,-0.473737,-0.578958,0.498700,-0.437813
27691,,9.669060,1.061298,-1.585200,-0.004442,0.000288,-0.002669,1.031738,-0.222900,-0.225342,-0.473731,-0.578957,0.498739,-0.437776
27692,,9.669036,1.061824,-1.584995,-0.008929,0.002495,-0.006022,1.038574,-0.220703,-0.225342,-0.473751,-0.578951,0.498759,-0.437739
27693,,9.712778,1.060820,-1.512094,-0.005808,0.006717,-0.003886,1.038574,-0.218506,-0.221191,-0.473768,-0.578936,0.498782,-0.437714
27694,,9.704933,1.068948,-1.423895,0.003097,0.011096,-0.002601,1.040771,-0.216064,-0.223389,-0.473770,-0.578930,0.498765,-0.437739
27695,,9.656803,1.063329,-1.426302,-0.001957,0.019543,-0.001316,1.041016,-0.222656,-0.225342,-0.473802,-0.578890,0.498757,-0.437767
27696,,9.606402,1.053979,-1.394204,-0.008720,0.015420,-0.000267,1.029297,-0.218506,-0.229736,-0.473844,-0.578840,0.498762,-0.437781
27697,,9.663893,1.033346,-1.460917,-0.006010,0.009435,-0.002569,1.033936,-0.218506,-0.225342,-0.473865,-0.578816,0.498783,-0.437766
27698,,9.664037,1.033683,-1.459724,0.003008,0.014930,-0.003965,1.036133,-0.216309,-0.227539,-0.473884,-0.578798,0.498763,-0.437792
27699,,9.693351,1.085857,-1.589789,-0.000566,0.018064,-0.004149,1.034180,-0.222900,-0.227295,-0.473915,-0.578771,0.498747,-0.437812
27700,,9.645252,1.080493,-1.592050,-0.001590,0.016016,-0.004633,1.033936,-0.218506,-0.229736,-0.473949,-0.578745,0.498729,-0.437831
27701,,9.671961,1.087517,-1.622799,-0.008559,0.014612,-0.002269,1.036133,-0.216309,-0.221191,-0.473990,-0.578702,0.498744,-0.437826
27702,,9.668784,1.103123,-1.602606,-0.008353,0.011892,-0.003587,1.038574,-0.220703,-0.225342,-0.474035,-0.578664,0.498756,-0.437815
27703,,9.670970,1.065737,-1.570503,0.006540,0.013710,-0.004459,1.033936,-0.218506,-0.225342,-0.474034,-0.578664,0.498734,-0.437840
27704,,9.639280,1.112195,-1.548895,0.018814,0.017672,-0.001662,1.031494,-0.216309,-0.225342,-0.474006,-0.578677,0.498673,-0.437923
27705,,9.655590,1.123055,-1.457969,0.016747,0.020445,-0.007366,1.033936,-0.220703,-0.225342,-0.473999,-0.578694,0.498604,-0.437986
27706,,9.655757,1.123520,-1.456505,0.003218,0.012203,-0.005280,1.036377,-0.220703,-0.223145,-0.474013,-0.578687,0.498584,-0.438002
27707,,9.634114,1.124710,-1.491467,-0.010812,0.013233,-0.001926,1.038574,-0.220703,-0.225342,-0.474056,-0.578641,0.498609,-0.437989
27708,,9.659420,1.109304,-1.472692,-0.026614,0.010483,-0.004229,1.036377,-0.218506,-0.221191,-0.474145,-0.578571,0.498653,-0.437935
27709,,9.666212,1.079865,-1.509446,-0.032967,0.000923,-0.005824,1.031738,-0.222900,-0.220947,-0.474230,-0.578509,0.498744,-0.437821
27710,,9.693707,1.068529,-1.525907,-0.027297,-0.000038,-0.003983,1.033936,-0.220703,-0.225342,-0.474291,-0.578461,0.498814,-0.437738
27711,,9.643988,1.040767,-1.479956,-0.015889,0.001080,-0.003669,1.033936,-0.218506,-0.223145,-0.474323,-0.578434,0.498873,-0.437673
27712,,9.652053,1.033550,-1.567397,-0.000658,-0.005564,-0.003808,1.040771,-0.218262,-0.229736,-0.474297,-0.578457,0.498903,-0.437636
27713,,9.654933,0.977240,-1.521798,0.004102,-0.007449,-0.005139,1.038574,-0.218506,-0.221191,-0.474252,-0.578500,0.498935,-0.437592
27714,,9.699825,0.998685,-1.498944,0.010275,0.009778,-0.006269,1.036377,-0.222900,-0.227295,-0.474241,-0.578520,0.498898,-0.437619
27715,,9.670358,1.049101,-1.512089,0.015899,0.010738,-0.005111,1.031738,-0.220703,-0.223145,-0.474207,-0.578551,0.498861,-0.437657
27716,,9.666095,1.083369,-1.507687,0.015694,0.013453,-0.003791,1.036377,-0.220703,-0.218994,-0.474177,-0.578575,0.498806,-0.437721
27717,,9.669641,1.068225,-1.525498,0.008768,0.010130,-0.000749,1.034180,-0.225098,-0.218750,-0.474153,-0.578579,0.498798,-0.437750
27718,,9.685036,1.139493,-1.516309,-0.001976,-0.001059,-0.004339,1.038818,-0.225098,-0.229492,-0.474134,-0.578601,0.498806,-0.437734
27719,,9.685001,1.139985,-1.516167,-0.017120,0.001750,-0.002839,1.036377,-0.220703,-0.227539,-0.474169,-0.578567,0.498868,-0.437669
27720,,9.666280,1.084363,-1.505784,-0.012844,0.002266,0.001837,1.038574,-0.220703,-0.231689,-0.474181,-0.578534,0.498918,-0.437643
27721,,9.661915,1.118550,-1.502060,-0.012682,0.001465,-0.000165,1.041016,-0.222656,-0.227295,-0.474196,-0.578505,0.498980,-0.437594
27722,,9.668398,1.046939,-1.474005,-0.006007,0.009421,-0.002567,1.033936,-0.218506,-0.223145,-0.474218,-0.578482,0.498987,-0.437593
27723,,9.619170,1.060428,-1.492546,0.005724,0.008943,-0.006255,1.036377,-0.218506,-0.223145,-0.474213,-0.578495,0.498973,-0.437597
27724,,9.611445,1.110254,-1.469357,0.011419,0.012937,-0.008461,1.036377,-0.222900,-0.227295,-0.474209,-0.578517,0.498920,-0.437632
27725,,9.639103,1.098849,-1.484895,0.001155,0.014973,-0.010975,1.038574,-0.218506,-0.225342,-0.474242,-0.578518,0.498888,-0.437632
27726,,9.619861,1.104492,-1.553913,-0.011482,0.014518,-0.010460,1.038574,-0.216309,-0.227539,-0.474310,-0.578490,0.498873,-0.437613
27727,,9.648483,1.074468,-1.554201,-0.014627,0.005349,-0.008555,1.036377,-0.220703,-0.218994,-0.474359,-0.578469,0.498905,-0.437551
27728,,9.669215,1.093687,-1.532605,-0.019224,0.006429,-0.009228,1.036133,-0.214111,-0.223389,-0.474430,-0.578435,0.498931,-0.437490
27729,,9.705993,1.055903,-1.620829,-0.014492,-0.000402,-0.006510,1.036377,-0.218506,-0.223145,-0.474460,-0.578422,0.498982,-0.437417
27730,,9.702514,1.071739,-1.601914,-0.019325,-0.001553,-0.001816,1.040771,-0.213867,-0.225586,-0.474498,-0.578382,0.499054,-0.437345
27731,,9.674975,1.084242,-1.584719,-0.002595,0.007088,-0.000378,1.043213,-0.222656,-0.218750,-0.474499,-0.578365,0.499079,-0.437337
27732,,9.641684,1.107644,-1.514299,0.005251,0.004481,0.004483,1.036133,-0.216309,-0.223389,-0.474463,-0.578362,0.499092,-0.437367
27733,,9.615188,1.100860,-1.481701,0.002328,0.004407,-0.003709,1.033936,-0.220703,-0.223145,-0.474450,-0.578371,0.499104,-0.437356
27734,,9.637946,1.081546,-1.429618,0.004746,0.004982,-0.006056,1.031738,-0.220703,-0.227539,-0.474440,-0.578389,0.499090,-0.437358
27735,,9.661137,1.104043,-1.442198,0.004568,0.012645,-0.008780,1.041016,-0.222656,-0.227295,-0.474452,-0.578398,0.499063,-0.437365
27736,,9.662659,1.127490,-1.490540,0.003293,0.015229,-0.008629,1.033936,-0.218506,-0.225342,-0.474473,-0.578400,0.499017,-0.437391
27737,,9.668659,1.116772,-1.542184,0.000876,0.014653,-0.006282,1.033936,-0.216309,-0.221191,-0.474495,-0.578390,0.499000,-0.437400
27738,,9.697797,1.127804,-1.607421,0.005682,0.010856,-0.006928,1.038574,-0.220703,-0.223145,-0.474501,-0.578397,0.498971,-0.437416
27739,,9.671307,1.121459,-1.574407,0.012459,0.008120,-0.003233,1.036377,-0.218506,-0.225342,-0.474467,-0.578421,0.498953,-0.437443
27740,,9.666970,1.155747,-1.570182,0.007818,0.011115,-0.004589,1.029541,-0.220703,-0.225342,-0.474459,-0.578432,0.498919,-0.437476
27741,,9.644965,1.115185,-1.540387,0.004168,0.011210,-0.001412,1.036377,-0.220703,-0.223145,-0.474452,-0.578424,0.498917,-0.437495
27742,,9.664862,1.152411,-1.533557,-0.004048,0.017329,-0.002955,1.036377,-0.218506,-0.221191,-0.474488,-0.578390,0.498900,-0.437522
27743,,9.615350,1.124282,-1.486189,-0.014430,0.018242,-0.002793,1.036377,-0.218506,-0.223145,-0.474556,-0.578327,0.498918,-0.437511
27744,,9.643125,1.112581,-1.501449,-0.015156,0.009651,-0.003239,1.036377,-0.218506,-0.227539,-0.474608,-0.578281,0.498943,-0.437485
27745,,9.637772,1.166135,-1.512406,-0.021963,0.007439,-0.002890,1.034180,-0.222900,-0.223145,-0.474671,-0.578224,0.499003,-0.437424
27746,,9.642334,1.132557,-1.514756,-0.029142,0.008738,0.000781,1.031494,-0.216309,-0.225342,-0.474750,-0.578140,0.499071,-0.437372
27747,,9.673462,1.105805,-1.549521,-0.036597,0.000963,-0.002682,1.038574,-0.216309,-0.225342,-0.474839,-0.578061,0.499179,-0.437257
27748,,9.674410,1.087900,-1.533689,-0.042049,-0.000810,-0.005847,1.031494,-0.216309,-0.223389,-0.474955,-0.577975,0.499290,-0.437119
27749,,9.678834,1.054920,-1.536589,-0.038933,0.003402,-0.003695,1.038574,-0.220703,-0.227539,-0.475058,-0.577888,0.499394,-0.437002
27750,,9.649744,1.045318,-1.469602,-0.028388,0.001694,-0.005859,1.038574,-0.218506,-0.223145,-0.475136,-0.577833,0.499463,-0.436911
27751,,9.677334,1.034000,-1.485915,-0.012434,0.003674,-0.005536,1.033936,-0.220703,-0.225342,-0.475168,-0.577813,0.499503,-0.436857
27752,,9.698008,1.052492,-1.464748,-0.001066,-0.000130,-0.001170,1.033936,-0.220703,-0.227539,-0.475148,-0.577820,0.499524,-0.436845
27753,,9.631467,1.032829,-1.523919,0.001594,0.002683,-0.008877,1.036377,-0.220703,-0.229492,-0.475144,-0.577844,0.499527,-0.436816
27754,,9.658021,1.040046,-1.556144,0.008289,-0.003078,-0.001824,1.038574,-0.218506,-0.229736,-0.475091,-0.577880,0.499535,-0.436816
27755,,9.726969,1.064078,-1.531201,0.005739,0.002087,-0.001517,1.031738,-0.220703,-0.225342,-0.475057,-0.577897,0.499551,-0.436812
27756,,9.698383,1.095515,-1.529396,-0.014897,0.005008,-0.003871,1.036133,-0.216309,-0.227539,-0.475098,-0.577864,0.499586,-0.436771
27757,,9.699933,1.118807,-1.578120,-0.027902,0.008040,-0.000039,1.033936,-0.220703,-0.225342,-0.475173,-0.577784,0.499666,-0.436704
27758,,9.672497,1.131350,-1.559955,-0.035167,0.013156,0.002279,1.036377,-0.218506,-0.227539,-0.475281,-0.577668,0.499745,-0.436649
27759,,9.643179,1.181687,-1.571893,-0.048211,0.018091,0.005436,1.033936,-0.216309,-0.221191,-0.475428,-0.577504,0.499861,-0.436573
27760,,9.616866,1.174907,-1.537792,-0.052746,0.010373,0.010158,1.033936,-0.220703,-0.227539,-0.475563,-0.577332,0.500009,-0.436484
27761,,9.637744,1.192927,-1.515533,-0.059126,0.002715,0.007855,1.027100,-0.220947,-0.223145,-0.475698,-0.577169,0.500192,-0.436343
27762,,9.657016,1.188440,-1.444047,-0.063382,0.002178,0.003181,1.036377,-0.222900,-0.225342,-0.475852,-0.577013,0.500356,-0.436193
27763,,9.661520,1.155127,-1.446729,-0.067758,0.000519,0.001187,1.033936,-0.216309,-0.223389,-0.476021,-0.576851,0.500544,-0.436007
27764,,9.665015,1.141144,-1.464653,-0.077997,0.002504,-0.001317,1.033936,-0.214111,-0.229736,-0.476229,-0.576670,0.500726,-0.435811
27765,,9.702133,1.104420,-1.552043,-0.082707,0.009290,-0.004001,1.033936,-0.218506,-0.229736,-0.476474,-0.576467,0.500910,-0.435601
27766,,9.680645,1.107205,-1.586125,-0.083032,0.017714,-0.004681,1.033936,-0.220703,-0.223145,-0.476751,-0.576239,0.501070,-0.435416
27767,,9.707534,1.115824,-1.615576,-0.080890,0.017943,-0.002331,1.033936,-0.218506,-0.227539,-0.477008,-0.576016,0.501234,-0.435239
27768,,9.684666,1.095205,-1.599723,-0.077727,0.020218,0.000515,1.033936,-0.216309,-0.227539,-0.477254,-0.575793,0.501377,-0.435099
27769,,9.686980,1.058032,-1.566421,-0.061953,0.023017,0.002852,1.040771,-0.218262,-0.227539,-0.477459,-0.575592,0.501503,-0.434997
27770,,9.660686,1.051348,-1.531819,-0.050557,0.017306,0.007873,1.038574,-0.220703,-0.227539,-0.477608,-0.575416,0.501621,-0.434929
27771,,9.629842,1.078225,-1.494240,-0.037605,0.009368,0.008041,1.036377,-0.218506,-0.227539,-0.477697,-0.575289,0.501741,-0.434860
27772,,9.674878,1.099001,-1.469399,-0.043337,0.014123,0.004868,1.036133,-0.216309,-0.229736,-0.477819,-0.575151,0.501836,-0.434800
27773,,9.622462,1.127190,-1.467720,-0.050752,0.019976,0.009222,1.031494,-0.211914,-0.227783,-0.477970,-0.574967,0.501963,-0.434732
27774,,9.624396,1.150555,-1.514735,-0.071002,0.014350,0.007565,1.036133,-0.216309,-0.225342,-0.478179,-0.574741,0.502142,-0.434593
27775,,9.628185,1.135965,-1.531675,-0.078972,0.010816,0.009415,1.036133,-0.211914,-0.229736,-0.478387,-0.574508,0.502353,-0.434428
27776,,9.601684,1.129215,-1.498162,-0.074982,0.002287,0.006905,1.033936,-0.214111,-0.231934,-0.478578,-0.574302,0.502565,-0.434245
27777,,9.630371,1.098530,-1.498971,-0.063390,0.000763,0.005899,1.033936,-0.218506,-0.229736,-0.478724,-0.574137,0.502756,-0.434081
27778,,9.627813,1.095014,-1.464288,-0.053430,-0.003356,-0.003475,1.031494,-0.216309,-0.229736,-0.478858,-0.574024,0.502903,-0.433914
27779,,9.674400,1.078597,-1.410421,-0.045240,-0.002547,-0.006654,1.033936,-0.216309,-0.229736,-0.478970,-0.573941,0.503025,-0.433757
27780,,9.702885,1.048972,-1.411841,-0.030140,0.001661,-0.012844,1.033936,-0.216309,-0.227539,-0.479069,-0.573897,0.503081,-0.433641
27781,,9.700285,1.046107,-1.376940,-0.019183,0.008263,-0.009829,1.031738,-0.218506,-0.225342,-0.479140,-0.573861,0.503113,-0.433573
27782,,9.687686,0.980558,-1.419921,-0.015059,0.014526,-0.007142,1.036133,-0.211914,-0.227783,-0.479211,-0.573816,0.503114,-0.433553
27783,,9.689469,1.004792,-1.467467,-0.009664,0.018219,-0.004629,1.033936,-0.216309,-0.229736,-0.479269,-0.573769,0.503116,-0.433550
27784,,9.665559,1.002179,-1.467915,-0.013391,0.015205,0.001889,1.036377,-0.218506,-0.227539,-0.479325,-0.573696,0.503148,-0.433548
27785,,9.664845,1.021267,-1.481530,-0.020303,0.011806,0.004896,1.038574,-0.216309,-0.225342,-0.479376,-0.573612,0.503215,-0.433522
27786,,9.648002,0.988649,-1.520197,-0.022717,0.018078,0.002574,1.033936,-0.216309,-0.233887,-0.479456,-0.573518,0.503250,-0.433518
27787,,9.640159,1.037726,-1.496080,-0.006704,0.000792,-0.003003,1.038574,-0.218506,-0.223145,-0.479458,-0.573512,0.503292,-0.433476
27788,,9.686741,1.020478,-1.442555,0.008559,-0.002648,-0.006535,1.031738,-0.220703,-0.227539,-0.479417,-0.573559,0.503286,-0.433467
27789,,9.631314,1.044948,-1.409032,0.010934,-0.000120,-0.009539,1.031738,-0.218506,-0.225342,-0.479380,-0.573613,0.503273,-0.433451
27790,,9.648313,1.078296,-1.368774,0.013183,0.001272,-0.009871,1.036133,-0.214111,-0.227539,-0.479337,-0.573676,0.503231,-0.433463
27791,,9.623138,1.095316,-1.386054,0.007415,0.001055,-0.009031,1.038330,-0.214111,-0.225586,-0.479312,-0.573717,0.503225,-0.433443
27792,,9.602449,1.078261,-1.407291,0.008477,0.001183,-0.007861,1.038574,-0.220703,-0.231689,-0.479290,-0.573753,0.503211,-0.433436
27793,,9.639707,1.041604,-1.496298,0.017514,0.004836,-0.008525,1.038574,-0.220703,-0.223145,-0.479245,-0.573810,0.503175,-0.433453
27794,,9.737108,1.034767,-1.472693,0.027306,-0.005357,-0.011231,1.038574,-0.216309,-0.227539,-0.479144,-0.573929,0.503109,-0.433484
27795,,9.708349,1.066436,-1.471396,0.032616,0.002168,-0.010044,1.038574,-0.216309,-0.227539,-0.479052,-0.574031,0.503042,-0.433528
27796,,9.678058,1.074649,-1.420212,0.026723,0.007698,-0.011198,1.033936,-0.216309,-0.229736,-0.478996,-0.574110,0.502958,-0.433582
27797,,9.701227,1.097535,-1.432606,0.031390,0.009694,-0.013869,1.033936,-0.218506,-0.227539,-0.478935,-0.574203,0.502865,-0.433636
27798,,9.677077,1.095490,-1.434203,0.031393,0.009689,-0.013867,1.033936,-0.218506,-0.225342,-0.478874,-0.574296,0.502759,-0.433702
27799,,9.646822,1.104131,-1.382348,0.037039,0.015642,-0.016698,1.038574,-0.216309,-0.229736,-0.478818,-0.574396,0.502631,-0.433780
27800,,9.673584,1.112213,-1.413362,0.038020,0.012717,-0.012186,1.033936,-0.214111,-0.229736,-0.478742,-0.574495,0.502506,-0.433877
27801,,9.680758,1.083122,-1.450456,0.040231,0.016014,-0.013181,1.040771,-0.218262,-0.223145,-0.478669,-0.574593,0.502380,-0.433973
27802,,9.662803,1.070265,-1.505137,0.029197,0.006357,-0.012859,1.038574,-0.216309,-0.225342,-0.478606,-0.574685,0.502289,-0.434026
27803,,9.645755,1.038186,-1.545139,0.034845,0.005432,-0.011018,1.040771,-0.216064,-0.229736,-0.478518,-0.574788,0.502206,-0.434082
27804,,9.650891,1.047090,-1.613561,0.041935,0.001150,-0.011353,1.031738,-0.222900,-0.233887,-0.478403,-0.574918,0.502105,-0.434156
27805,,9.642629,1.096262,-1.591542,0.047925,-0.008223,-0.008847,1.033936,-0.218506,-0.223145,-0.478238,-0.575076,0.502033,-0.434211
27806,,9.664935,1.076183,-1.541049,0.043258,-0.003353,-0.010849,1.036133,-0.214111,-0.223389,-0.478096,-0.575225,0.501932,-0.434286
27807,,9.659292,1.129605,-1.553041,0.045300,0.000728,-0.009841,1.031494,-0.214111,-0.223389,-0.477964,-0.575360,0.501842,-0.434358
27808,,9.684351,1.113784,-1.535736,0.042713,0.007774,-0.010173,1.036133,-0.216309,-0.225342,-0.477863,-0.575470,0.501731,-0.434451
27809,,9.704002,1.151149,-1.529083,0.042376,0.016208,-0.010840,1.036377,-0.218506,-0.223145,-0.477780,-0.575567,0.501606,-0.434557
27810,,9.680671,1.190823,-1.594697,0.046882,0.018972,-0.011502,1.036133,-0.214111,-0.225586,-0.477691,-0.575673,0.501447,-0.434698
27811,,9.682760,1.152693,-1.563376,0.066341,0.012962,-0.006963,1.036377,-0.220703,-0.227539,-0.477522,-0.575825,0.501289,-0.434865
27812,,9.750645,1.195330,-1.552997,0.062145,0.003644,-0.006285,1.038574,-0.216309,-0.227539,-0.477341,-0.575986,0.501151,-0.435010
27813,,9.681876,1.171087,-1.578560,0.049236,0.009629,-0.005801,1.038330,-0.214111,-0.223389,-0.477211,-0.576101,0.501041,-0.435127
27814,,9.629499,1.137730,-1.498596,0.041931,0.016609,-0.004145,1.038574,-0.220703,-0.225342,-0.477121,-0.576175,0.500927,-0.435259
27815,,9.633290,1.122571,-1.516377,0.035094,0.016273,-0.004486,1.033936,-0.216309,-0.229736,-0.477045,-0.576238,0.500837,-0.435362
27816,,9.702377,1.146713,-1.488795,0.029996,0.033407,-0.008532,1.033936,-0.216309,-0.225342,-0.477034,-0.576264,0.500690,-0.435508
27817,,9.672205,1.216135,-1.514702,0.020437,0.039007,-0.006550,1.038574,-0.216309,-0.225342,-0.477062,-0.576248,0.500571,-0.435635
27818,,9.680688,1.228491,-1.613751,0.006628,0.037229,-0.004566,1.033691,-0.211914,-0.225586,-0.477125,-0.576196,0.500483,-0.435738
27819,,9.650604,1.298031,-1.639391,-0.009304,0.035188,-0.004930,1.038574,-0.218506,-0.221191,-0.477225,-0.576113,0.500443,-0.435784
27820,,9.609099,1.281627,-1.693948,-0.019247,0.023790,-0.002760,1.029297,-0.216309,-0.221191,-0.477327,-0.576022,0.500450,-0.435785
27821,,9.511185,1.247016,-1.651323,-0.019079,0.016146,-0.000072,1.036377,-0.220703,-0.225342,-0.477397,-0.575945,0.500490,-0.435763
27822,,9.609730,1.221199,-1.610690,-0.009349,0.002901,0.000641,1.033936,-0.220703,-0.223145,-0.477402,-0.575921,0.500527,-0.435745
27823,,9.656291,1.204349,-1.556219,-0.016231,0.004483,-0.000381,1.036133,-0.216309,-0.225342,-0.477436,-0.575878,0.500589,-0.435696
27824,,9.652894,1.159036,-1.456043,-0.044899,0.014491,-0.006983,1.036377,-0.218506,-0.227539,-0.477590,-0.575763,0.500654,-0.435604
27825,,9.611315,1.082155,-1.431461,-0.045365,0.021793,-0.004983,1.033936,-0.220703,-0.225342,-0.477760,-0.575624,0.500724,-0.435521
27826,,9.601184,0.978270,-1.442378,-0.033589,0.019482,-0.007957,1.036133,-0.216309,-0.227539,-0.477894,-0.575529,0.500748,-0.435471
27827,,9.645966,1.000342,-1.416877,-0.022120,0.016848,-0.006252,1.033936,-0.216309,-0.223389,-0.477988,-0.575459,0.500775,-0.435429
27828,,9.626563,0.964160,-1.421417,-0.011457,0.009476,-0.006386,1.031494,-0.216309,-0.223389,-0.478037,-0.575429,0.500788,-0.435401
27829,,9.703561,0.939981,-1.417460,0.002608,0.006654,-0.009021,1.038574,-0.220703,-0.225342,-0.478040,-0.575447,0.500778,-0.435385
27830,,9.685902,0.865810,-1.392467,0.021351,0.005810,-0.014317,1.029053,-0.211914,-0.227783,-0.477996,-0.575529,0.500697,-0.435418
27831,,9.660878,0.821620,-1.329925,0.049097,0.003649,-0.016242,1.036377,-0.218506,-0.225342,-0.477874,-0.575683,0.500572,-0.435492
27832,,9.668182,0.792381,-1.367554,0.075102,0.011349,-0.016000,1.033936,-0.216309,-0.225342,-0.477702,-0.575875,0.500369,-0.435660
27833,,9.705346,0.843864,-1.306416,0.098661,-0.000137,-0.017241,1.034180,-0.222900,-0.223145,-0.477430,-0.576158,0.500143,-0.435845
27834,,9.726499,0.904048,-1.350805,0.105173,0.001733,-0.012863,1.033936,-0.218506,-0.225342,-0.477128,-0.576447,0.499890,-0.436082
27835,,9.738637,0.970807,-1.307450,0.107816,0.013212,-0.008684,1.036377,-0.222900,-0.220947,-0.476844,-0.576701,0.499636,-0.436348
27836,,9.702546,1.091892,-1.348324,0.107314,0.015547,-0.002659,1.031494,-0.214111,-0.218994,-0.476546,-0.576942,0.499372,-0.436658
27837,,9.698083,1.124867,-1.344479,0.099429,0.015044,-0.004176,1.038574,-0.220703,-0.216797,-0.476280,-0.577160,0.499144,-0.436919
27838,,9.735301,1.236194,-1.363319,0.086947,0.015610,-0.006388,1.031738,-0.222900,-0.225342,-0.476056,-0.577356,0.498919,-0.437162
27839,,9.684364,1.286503,-1.413465,0.082502,0.017745,-0.009747,1.036133,-0.216309,-0.221191,-0.475858,-0.577541,0.498706,-0.437376
27840,,9.633437,1.337142,-1.463327,0.072226,0.021610,-0.012975,1.031494,-0.214111,-0.223389,-0.475704,-0.577705,0.498481,-0.437583
27841,,9.614915,1.341840,-1.533342,0.063473,0.011479,-0.012292,1.038330,-0.214111,-0.223389,-0.475551,-0.577865,0.498317,-0.437725
27842,,9.628940,1.300114,-1.623065,0.051030,0.021933,-0.005380,1.031494,-0.214111,-0.225586,-0.475457,-0.577944,0.498177,-0.437882
27843,,9.619891,1.236253,-1.699308,0.052708,0.015841,-0.008845,1.036133,-0.216309,-0.223389,-0.475338,-0.578061,0.498036,-0.438017
27844,,9.603358,1.202729,-1.738390,0.055053,0.013391,-0.007812,1.036133,-0.216309,-0.218994,-0.475215,-0.578175,0.497900,-0.438155
27845,,9.609070,1.209633,-1.806315,0.051294,0.010470,-0.001294,1.033936,-0.216309,-0.216797,-0.475071,-0.578281,0.497796,-0.438289
27846,,9.600963,1.258053,-1.783368,0.033403,0.019169,0.002404,1.033936,-0.218506,-0.221191,-0.474996,-0.578314,0.497713,-0.438422
27847,,9.614172,1.306155,-1.723754,0.004077,0.008155,0.001977,1.038574,-0.216309,-0.225342,-0.474975,-0.578304,0.497728,-0.438440
27848,,9.578910,1.348424,-1.669870,-0.023984,-0.012237,0.006126,1.036133,-0.216309,-0.225342,-0.474981,-0.578258,0.497859,-0.438346
27849,,9.597251,1.344263,-1.600192,-0.055645,-0.020822,0.004671,1.033936,-0.218506,-0.223145,-0.475054,-0.578164,0.498081,-0.438138
27850,,9.647117,1.312926,-1.565869,-0.083668,-0.022673,0.012563,1.031494,-0.216309,-0.225342,-0.475193,-0.577983,0.498387,-0.437879
27851,,9.665508,1.308803,-1.496034,-0.091646,-0.019344,0.009675,1.033936,-0.218506,-0.221191,-0.475363,-0.577787,0.498699,-0.437597
27852,,9.700571,1.206580,-1.470547,-0.095788,-0.023733,0.006348,1.033936,-0.214111,-0.227539,-0.475547,-0.577595,0.499015,-0.437291
27853,,9.752311,1.198475,-1.485289,-0.093939,-0.010166,0.003968,1.040771,-0.218262,-0.221191,-0.475759,-0.577388,0.499293,-0.437016
27854,,9.717041,1.110060,-1.514989,-0.079553,0.000896,0.004498,1.031494,-0.216309,-0.223389,-0.475963,-0.577184,0.499510,-0.436816
27855,,9.703289,1.020548,-1.507502,-0.060581,0.010915,0.005719,1.038574,-0.220703,-0.225342,-0.476127,-0.577005,0.499670,-0.436689
27856,,9.672063,1.047812,-1.470155,-0.046123,0.018191,0.007599,1.033936,-0.218506,-0.225342,-0.476264,-0.576841,0.499774,-0.436637
27857,,9.645513,1.040713,-1.436186,-0.041487,0.015218,0.008968,1.031738,-0.220703,-0.223145,-0.476377,-0.576691,0.499892,-0.436578
27858,,9.690346,1.061466,-1.410944,-0.057695,0.010963,0.013928,1.036377,-0.218506,-0.223145,-0.476513,-0.576501,0.500055,-0.436494
27859,,9.640505,1.032163,-1.364632,-0.068647,0.004368,0.010897,1.034180,-0.225098,-0.220947,-0.476673,-0.576305,0.500263,-0.436340
27860,,9.647993,1.001841,-1.401937,-0.068178,-0.009795,0.013611,1.031738,-0.218506,-0.227539,-0.476781,-0.576144,0.500486,-0.436178
27861,,9.701736,0.954572,-1.386000,-0.067953,-0.012517,0.012287,1.034180,-0.222900,-0.227295,-0.476893,-0.575982,0.500737,-0.435981
27862,,9.702651,0.935375,-1.370887,-0.053231,-0.003002,0.008825,1.029541,-0.220703,-0.223145,-0.476991,-0.575848,0.500908,-0.435856
27863,,9.657280,0.933090,-1.409232,-0.028279,0.004553,0.007910,1.033936,-0.218506,-0.227539,-0.477041,-0.575754,0.501019,-0.435797
27864,,9.677817,0.950870,-1.387404,-0.001490,0.005266,0.001492,1.036377,-0.218506,-0.225342,-0.477028,-0.575742,0.501037,-0.435807
27865,,9.669637,0.999552,-1.364277,0.028085,0.009868,0.001934,1.031738,-0.220703,-0.218750,-0.476942,-0.575786,0.500996,-0.435890
27866,,9.694823,0.982989,-1.345986,0.041904,0.011634,-0.000018,1.036133,-0.216309,-0.229736,-0.476822,-0.575869,0.500895,-0.436026
27867,,9.686667,1.031539,-1.322789,0.040849,0.011493,-0.001189,1.038574,-0.220703,-0.227539,-0.476711,-0.575948,0.500813,-0.436139
27868,,9.688668,1.054153,-1.371639,0.037539,0.009973,-0.002034,1.029297,-0.214111,-0.225342,-0.476610,-0.576022,0.500730,-0.436246
27869,,9.690617,1.076826,-1.420854,0.021722,0.002220,-0.000413,1.033936,-0.220703,-0.223145,-0.476529,-0.576074,0.500714,-0.436285
27870,,9.713846,1.098581,-1.433875,0.007902,0.000457,0.001537,1.031738,-0.220703,-0.223145,-0.476484,-0.576087,0.500732,-0.436296
27871,,9.644305,1.092951,-1.475304,-0.004915,-0.006099,0.008682,1.038574,-0.220703,-0.220947,-0.476439,-0.576070,0.500820,-0.436267
27872,,9.665632,1.091573,-1.439132,-0.015015,-0.003008,0.003452,1.038330,-0.214111,-0.231934,-0.476437,-0.576043,0.500886,-0.436229
27873,,9.673055,1.061421,-1.476760,-0.008293,0.003036,0.001798,1.036377,-0.222900,-0.227295,-0.476439,-0.576015,0.500940,-0.436201
27874,,9.624867,1.055264,-1.481198,-0.008213,-0.000778,0.003143,1.031738,-0.218506,-0.229736,-0.476434,-0.575989,0.501000,-0.436172
27875,,9.624007,1.074051,-1.496343,-0.004939,0.002641,0.003317,1.033936,-0.218506,-0.223145,-0.476422,-0.575967,0.501051,-0.436155
27876,,9.652781,1.043050,-1.497244,-0.006922,0.003490,-0.001707,1.033936,-0.218506,-0.231689,-0.476434,-0.575947,0.501083,-0.436132
27877,,9.698194,1.045374,-1.458426,0.002685,-0.004020,-0.002990,1.036133,-0.216309,-0.227539,-0.476397,-0.575974,0.501116,-0.436100
27878,,9.676787,1.046640,-1.495237,0.006134,-0.001394,-0.004819,1.043213,-0.218262,-0.229736,-0.476370,-0.575999,0.501128,-0.436082
27879,,9.678524,1.009012,-1.464903,0.009663,-0.002582,-0.005303,1.033936,-0.220703,-0.229492,-0.476322,-0.576044,0.501135,-0.436066
27880,,9.720192,1.026496,-1.407463,0.019955,0.000367,-0.006769,1.036377,-0.218506,-0.227539,-0.476257,-0.576111,0.501098,-0.436092
27881,,9.678418,1.009584,-1.465210,0.017310,0.002480,-0.003107,1.036377,-0.220703,-0.223145,-0.476195,-0.576158,0.501083,-0.436114
27882,,9.681238,1.013520,-1.499199,0.017095,0.005179,-0.001776,1.033936,-0.216309,-0.229736,-0.476138,-0.576197,0.501052,-0.436162
27883,,9.704524,1.035459,-1.511719,0.010036,0.007555,-0.000808,1.034180,-0.222900,-0.227295,-0.476104,-0.576210,0.501047,-0.436187
27884,,9.705529,1.016364,-1.495864,0.010077,0.005648,-0.000135,1.033936,-0.218506,-0.225342,-0.476067,-0.576224,0.501040,-0.436218
27885,,9.676931,1.047308,-1.493835,-0.002846,0.011648,0.000296,1.036377,-0.220703,-0.229492,-0.476078,-0.576194,0.501057,-0.436225
27886,,9.652957,1.044431,-1.495147,-0.017511,0.007055,-0.000260,1.040771,-0.216064,-0.229736,-0.476123,-0.576141,0.501104,-0.436192
27887,,9.625247,1.056836,-1.477605,-0.030176,0.008445,-0.000486,1.038330,-0.214111,-0.221191,-0.476207,-0.576055,0.501186,-0.436119
27888,,9.627278,1.080386,-1.525818,-0.029019,0.011593,-0.002658,1.029541,-0.220703,-0.227539,-0.476313,-0.575960,0.501251,-0.436053
27889,,9.612583,1.071124,-1.614234,-0.019313,0.007103,-0.007286,1.041016,-0.220459,-0.220947,-0.476377,-0.575921,0.501293,-0.435988
27890,,9.586702,1.107042,-1.646300,-0.012471,0.007427,-0.006921,1.036133,-0.216309,-0.225342,-0.476419,-0.575900,0.501302,-0.435959
27891,,9.610806,1.110937,-1.643428,-0.012175,0.000915,-0.006909,1.036377,-0.218506,-0.229736,-0.476446,-0.575890,0.501344,-0.435894
27892,,9.634792,1.114913,-1.641191,-0.003665,-0.004816,-0.010037,1.036377,-0.220703,-0.227539,-0.476448,-0.575915,0.501367,-0.435833
27893,,9.684636,1.083854,-1.606504,0.005510,-0.006922,-0.008655,1.036377,-0.218506,-0.229736,-0.476408,-0.575968,0.501384,-0.435786
27894,,9.680716,1.099489,-1.588426,0.011157,-0.007842,-0.006790,1.031738,-0.218506,-0.229736,-0.476347,-0.576033,0.501385,-0.435767
27895,,9.648973,1.126816,-1.553966,0.013315,-0.009483,-0.003769,1.036377,-0.218506,-0.223145,-0.476268,-0.576098,0.501405,-0.435744
27896,,9.698841,1.095476,-1.519474,0.002118,-0.004626,-0.010846,1.038574,-0.218506,-0.227539,-0.476251,-0.576142,0.501408,-0.435700
27897,,9.699606,1.077397,-1.504495,0.006449,-0.001073,-0.009496,1.034180,-0.222900,-0.229492,-0.476225,-0.576187,0.501407,-0.435670
27898,,9.692097,1.108276,-1.466593,0.006151,0.005439,-0.009508,1.033936,-0.216309,-0.225342,-0.476214,-0.576222,0.501374,-0.435675
27899,,9.692993,1.090242,-1.450732,-0.005279,0.006163,-0.010562,1.036133,-0.216309,-0.231934,-0.476242,-0.576226,0.501378,-0.435634
27900,,9.673494,1.054401,-1.455965,-0.013179,0.005699,-0.012100,1.033936,-0.216309,-0.229736,-0.476305,-0.576207,0.501395,-0.435571
27901,,9.698511,1.039718,-1.437527,-0.016884,0.007676,-0.009613,1.036377,-0.220703,-0.231689,-0.476368,-0.576178,0.501423,-0.435508
27902,,9.728289,1.051893,-1.502352,-0.014888,0.013660,-0.009278,1.036133,-0.211914,-0.227783,-0.476444,-0.576137,0.501426,-0.435476
27903,,9.690482,1.020480,-1.577622,-0.007262,0.011898,-0.002390,1.036377,-0.218506,-0.225342,-0.476475,-0.576103,0.501445,-0.435466
27904,,9.711003,1.038856,-1.555279,-0.001438,0.010188,-0.002527,1.038574,-0.218506,-0.227539,-0.476495,-0.576078,0.501452,-0.435468
27905,,9.655457,1.062748,-1.521282,0.002835,0.008819,0.002842,1.038574,-0.216309,-0.227539,-0.476478,-0.576062,0.501470,-0.435487
27906,,9.630611,1.078519,-1.537897,-0.004086,0.012299,0.001134,1.026855,-0.214355,-0.225342,-0.476497,-0.576024,0.501481,-0.435504
27907,,9.606695,1.075588,-1.538961,-0.014279,0.012357,-0.000752,1.036377,-0.222900,-0.220947,-0.476545,-0.575968,0.501518,-0.435482
27908,,9.599353,1.106030,-1.499955,-0.020901,0.009325,-0.002450,1.031494,-0.214111,-0.231934,-0.476609,-0.575909,0.501558,-0.435444
27909,,9.628236,1.075842,-1.499912,-0.027642,0.012009,-0.006161,1.036377,-0.222900,-0.225342,-0.476706,-0.575836,0.501610,-0.435375
27910,,9.669956,1.094031,-1.440730,-0.021680,0.011412,-0.008971,1.036377,-0.222900,-0.227295,-0.476794,-0.575784,0.501632,-0.435322
27911,,9.672820,1.099325,-1.473777,-0.008661,0.008454,-0.012749,1.033936,-0.218506,-0.227539,-0.476843,-0.575781,0.501632,-0.435274
27912,,9.626511,1.117772,-1.526975,-0.005033,0.010290,-0.016575,1.038330,-0.211914,-0.229736,-0.476889,-0.575798,0.501589,-0.435251
27913,,9.661829,1.077367,-1.580659,-0.002579,0.002144,-0.013549,1.038818,-0.222900,-0.225342,-0.476905,-0.575825,0.501588,-0.435198
27914,,9.694324,1.032582,-1.600387,0.001570,0.006492,-0.010190,1.036377,-0.220703,-0.227539,-0.476917,-0.575842,0.501566,-0.435187
27915,,9.723127,1.002662,-1.600915,0.005019,0.009121,-0.012012,1.036377,-0.218506,-0.225342,-0.476926,-0.575868,0.501537,-0.435177
27916,,9.664654,1.023200,-1.532464,0.016805,0.018542,-0.006446,1.038574,-0.218506,-0.225342,-0.476909,-0.575893,0.501456,-0.435255
27917,,9.661099,1.038401,-1.512044,0.018960,0.016904,-0.003425,1.036377,-0.218506,-0.221191,-0.476879,-0.575913,0.501402,-0.435323
27918,,9.682564,1.037514,-1.474014,0.007396,0.016500,-0.001814,1.036133,-0.214111,-0.223389,-0.476875,-0.575908,0.501360,-0.435383
27919,,9.646377,1.098528,-1.433807,-0.011906,0.008008,0.000932,1.036133,-0.216309,-0.229736,-0.476902,-0.575863,0.501407,-0.435358
27920,,9.649373,1.102997,-1.466789,-0.035854,0.011194,-0.003040,1.036377,-0.220703,-0.231689,-0.477024,-0.575757,0.501485,-0.435276
27921,,9.617763,1.130815,-1.430273,-0.049189,0.002101,-0.003103,1.029297,-0.218506,-0.225342,-0.477152,-0.575646,0.501616,-0.435132
27922,,9.600313,1.118015,-1.484850,-0.053630,0.004246,-0.006465,1.033936,-0.218506,-0.229736,-0.477303,-0.575531,0.501727,-0.434989
27923,,9.644688,1.140474,-1.460394,-0.036202,0.001044,-0.007540,1.033936,-0.216309,-0.231934,-0.477401,-0.575465,0.501819,-0.434863
27924,,9.653992,1.073839,-1.467375,-0.031255,-0.001585,-0.010854,1.029541,-0.220703,-0.227539,-0.477489,-0.575421,0.501891,-0.434742
27925,,9.665230,1.030440,-1.523958,-0.020928,-0.000517,-0.011635,1.043213,-0.216064,-0.223389,-0.477548,-0.575405,0.501941,-0.434640
27926,,9.724702,0.992912,-1.575823,0.000639,0.000648,-0.009353,1.036133,-0.216309,-0.227539,-0.477540,-0.575437,0.501931,-0.434619
27927,,9.742137,1.007806,-1.519708,0.016323,0.014149,-0.012943,1.033936,-0.216309,-0.229736,-0.477531,-0.575481,0.501862,-0.434649
27928,,9.722929,0.971718,-1.524042,0.030813,0.026395,-0.015035,1.036133,-0.214111,-0.225586,-0.477521,-0.575535,0.501719,-0.434755
27929,,9.694450,1.003270,-1.520163,0.034558,0.034222,-0.008328,1.038574,-0.218506,-0.227539,-0.477500,-0.575567,0.501576,-0.434900
27930,,9.666992,1.015170,-1.500754,0.036534,0.033370,-0.003302,1.036133,-0.216309,-0.233887,-0.477463,-0.575592,0.501435,-0.435070
27931,,9.632924,1.098533,-1.508970,0.038929,0.020307,0.003733,1.036377,-0.218506,-0.227539,-0.477368,-0.575635,0.501350,-0.435215
27932,,9.631411,1.135518,-1.538367,0.025272,0.010896,0.008334,1.031738,-0.220703,-0.229492,-0.477283,-0.575652,0.501323,-0.435319
27933,,9.626895,1.168445,-1.534224,0.010659,0.004369,0.008416,1.033936,-0.216309,-0.229736,-0.477219,-0.575650,0.501351,-0.435358
27934,,9.625225,1.205716,-1.564514,-0.000544,0.002376,0.006010,1.033936,-0.218506,-0.227539,-0.477189,-0.575631,0.501392,-0.435369
27935,,9.650315,1.189372,-1.546562,0.000835,0.002830,0.002510,1.033936,-0.218506,-0.227539,-0.477163,-0.575624,0.501428,-0.435365
27936,,9.654227,1.174502,-1.564814,0.010274,0.011689,-0.006792,1.036133,-0.216309,-0.227539,-0.477152,-0.575644,0.501384,-0.435400
27937,,9.646686,1.204736,-1.526151,0.033086,0.012181,-0.005313,1.036133,-0.216309,-0.223389,-0.477074,-0.575714,0.501305,-0.435486
27938,,9.684422,1.236860,-1.448511,0.030613,0.013490,-0.003657,1.033936,-0.220703,-0.223145,-0.477007,-0.575766,0.501226,-0.435580
27939,,9.685467,1.217736,-1.432330,0.019086,0.011180,-0.001389,1.036133,-0.216309,-0.223389,-0.476958,-0.575794,0.501192,-0.435636
27940,,9.689452,1.202667,-1.450249,-0.005107,0.010238,0.000627,1.034180,-0.222900,-0.225342,-0.476970,-0.575765,0.501202,-0.435651
27941,,9.652894,1.151579,-1.510866,-0.017471,0.005102,0.000383,1.040771,-0.218262,-0.223145,-0.477007,-0.575715,0.501266,-0.435602
27942,,9.661523,1.102785,-1.532787,-0.010409,0.002743,-0.000571,1.036377,-0.220703,-0.225342,-0.477013,-0.575698,0.501294,-0.435586
27943,,9.635401,1.076840,-1.485505,-0.004586,0.001043,-0.000699,1.041016,-0.220459,-0.225342,-0.477004,-0.575690,0.501337,-0.435555
27944,,9.613365,1.097167,-1.537070,-0.007830,0.004440,-0.005567,1.038574,-0.220703,-0.223145,-0.477018,-0.575688,0.501342,-0.435538
27945,,9.615144,1.059567,-1.506256,-0.005602,-0.000995,-0.001206,1.033936,-0.220703,-0.229492,-0.477009,-0.575684,0.501391,-0.435498
27946,,9.670932,1.036221,-1.539322,-0.002762,-0.003894,-0.006866,1.038574,-0.220703,-0.227539,-0.476990,-0.575715,0.501402,-0.435464
27947,,9.675635,1.002909,-1.542670,0.008206,0.009510,-0.008472,1.038574,-0.218506,-0.225342,-0.476983,-0.575738,0.501375,-0.435472
27948,,9.655422,0.985368,-1.563410,0.012871,0.004663,-0.006433,1.033936,-0.220703,-0.227539,-0.476942,-0.575784,0.501336,-0.435501
27949,,9.651551,1.000662,-1.544505,0.009498,-0.001768,-0.003277,1.034180,-0.225098,-0.225098,-0.476892,-0.575823,0.501347,-0.435492
27950,,9.675574,1.004164,-1.542240,0.006293,-0.000274,-0.007476,1.036133,-0.216309,-0.221191,-0.476851,-0.575875,0.501322,-0.435497
27951,,9.620521,1.009475,-1.494211,0.009641,-0.000660,-0.005950,1.033936,-0.216309,-0.225342,-0.476809,-0.575918,0.501323,-0.435485
27952,,9.614793,1.062560,-1.506385,0.019766,-0.005620,-0.000031,1.036377,-0.222900,-0.229492,-0.476718,-0.575978,0.501322,-0.435507
27953,,9.639897,1.107657,-1.569530,0.022568,-0.006622,-0.006359,1.041016,-0.220459,-0.231689,-0.476624,-0.576065,0.501308,-0.435509
27954,,9.634989,1.141601,-1.566987,0.029124,-0.008503,-0.000633,1.031738,-0.220703,-0.229492,-0.476487,-0.576168,0.501278,-0.435558
27955,,9.681218,1.185705,-1.593697,0.029372,-0.004390,-0.006649,1.040771,-0.216064,-0.225342,-0.476380,-0.576268,0.501243,-0.435583
27956,,9.675196,1.178060,-1.526039,0.014452,-0.004407,-0.006580,1.031738,-0.220703,-0.227539,-0.476318,-0.576332,0.501228,-0.435583
27957,,9.676929,1.140545,-1.495598,0.000285,0.002214,-0.005347,1.036377,-0.222900,-0.225342,-0.476309,-0.576345,0.501245,-0.435558
27958,,9.673959,1.137255,-1.461124,-0.001865,0.003842,-0.008370,1.033936,-0.220703,-0.229492,-0.476307,-0.576368,0.501228,-0.435548
27959,,9.698052,1.141248,-1.457997,-0.006715,0.009483,-0.008410,1.033936,-0.220703,-0.227539,-0.476343,-0.576356,0.501234,-0.435519
27960,,9.699067,1.122979,-1.441421,-0.006105,0.015011,-0.004571,1.038574,-0.218506,-0.227539,-0.476377,-0.576330,0.501217,-0.435535
27961,,9.653997,1.121207,-1.478987,-0.003811,0.014488,-0.004220,1.036377,-0.220703,-0.223145,-0.476408,-0.576304,0.501216,-0.435537
27962,,9.664824,1.095481,-1.549590,-0.008461,0.010621,-0.000906,1.033936,-0.216309,-0.227539,-0.476431,-0.576273,0.501224,-0.435543
27963,,9.670652,1.042751,-1.536673,-0.001477,0.012065,-0.003198,1.033936,-0.220703,-0.223145,-0.476447,-0.576254,0.501227,-0.435547
27964,,9.643788,1.035914,-1.503606,0.006340,0.016341,-0.002981,1.038330,-0.214111,-0.227539,-0.476450,-0.576246,0.501189,-0.435596
27965,,9.663279,1.073434,-1.496234,0.004454,0.013371,-0.006666,1.038574,-0.220703,-0.229492,-0.476460,-0.576248,0.501166,-0.435610
27966,,9.660412,1.070043,-1.460985,-0.002307,0.009230,-0.005706,1.029297,-0.216309,-0.227539,-0.476481,-0.576238,0.501161,-0.435606
27967,,9.688464,1.058778,-1.476330,-0.013918,0.010727,-0.004788,1.036377,-0.220703,-0.225342,-0.476533,-0.576197,0.501190,-0.435571
27968,,9.670422,1.064334,-1.545983,-0.003401,0.010993,-0.007552,1.033936,-0.214111,-0.223389,-0.476562,-0.576188,0.501175,-0.435568
27969,,9.687841,1.078662,-1.489185,0.011614,0.017022,0.002907,1.029541,-0.220703,-0.225342,-0.476539,-0.576175,0.501155,-0.435633
27970,,9.679421,1.127556,-1.465297,0.012128,0.016537,-0.003770,1.033936,-0.218506,-0.225342,-0.476532,-0.576179,0.501107,-0.435692
27971,,9.651703,1.139351,-1.447314,0.005789,0.018718,0.003030,1.033936,-0.216309,-0.229736,-0.476530,-0.576148,0.501096,-0.435748
27972,,9.602905,1.151902,-1.465953,-0.001882,0.015546,0.000136,1.027100,-0.220947,-0.225342,-0.476553,-0.576109,0.501095,-0.435775
27973,,9.609093,1.159953,-1.532993,-0.002673,0.010814,-0.001702,1.033936,-0.220703,-0.227539,-0.476566,-0.576087,0.501107,-0.435775
27974,,9.657365,1.166546,-1.527143,-0.005757,0.006603,-0.003893,1.038574,-0.220703,-0.225342,-0.476577,-0.576078,0.501112,-0.435770
27975,,9.628514,1.197988,-1.525532,-0.010081,0.003049,-0.005259,1.033936,-0.220703,-0.223145,-0.476599,-0.576064,0.501150,-0.435721
27976,,9.635072,1.127109,-1.497646,-0.021292,0.009759,-0.013034,1.036133,-0.216309,-0.225342,-0.476680,-0.576038,0.501149,-0.435667
27977,,9.695854,1.070691,-1.532802,-0.010050,0.009852,-0.009940,1.033936,-0.220703,-0.227539,-0.476730,-0.576021,0.501156,-0.435627
27978,,9.693784,1.048818,-1.482215,-0.007796,0.011231,-0.010257,1.038574,-0.216309,-0.231934,-0.476778,-0.576008,0.501141,-0.435608
27979,,9.670703,1.027659,-1.467991,-0.002458,0.016820,-0.008382,1.038574,-0.218506,-0.223145,-0.476820,-0.575991,0.501120,-0.435610
27980,,9.671745,1.009371,-1.451180,0.006714,0.014742,-0.006972,1.036133,-0.216309,-0.229736,-0.476830,-0.575994,0.501078,-0.435643
27981,,9.674914,1.013840,-1.484074,0.007807,0.012979,-0.005124,1.034180,-0.222900,-0.223145,-0.476826,-0.576001,0.501052,-0.435668
27982,,9.678973,0.999118,-1.501821,0.003113,0.011013,-0.002488,1.033936,-0.218506,-0.225342,-0.476821,-0.575999,0.501032,-0.435699
27983,,9.654147,1.015164,-1.518603,0.003114,0.011012,-0.002488,1.038574,-0.220703,-0.223145,-0.476819,-0.575993,0.501029,-0.435713
27984,,9.670545,1.048367,-1.477300,-0.001806,0.011739,0.001481,1.031494,-0.214111,-0.221191,-0.476820,-0.575970,0.501026,-0.435746
27985,,9.693948,1.070619,-1.488669,-0.004028,0.017159,-0.002884,1.036377,-0.218506,-0.227539,-0.476855,-0.575933,0.501024,-0.435758
27986,,9.617130,1.095527,-1.490920,-0.001773,0.018537,-0.003199,1.038574,-0.218506,-0.225342,-0.476895,-0.575895,0.501006,-0.435786
27987,,9.667663,1.125269,-1.533728,-0.004855,0.014326,-0.005393,1.038574,-0.218506,-0.218994,-0.476931,-0.575870,0.501004,-0.435782
27988,,9.644603,1.103752,-1.519598,-0.005869,0.012289,-0.005902,1.033936,-0.218506,-0.229736,-0.476963,-0.575852,0.500989,-0.435787
27989,,9.668782,1.107648,-1.515881,0.000106,0.011700,-0.008690,1.036377,-0.218506,-0.223145,-0.476986,-0.575853,0.500973,-0.435780
27990,,9.666666,1.085330,-1.465452,0.005782,0.008902,-0.006134,1.033691,-0.211914,-0.227783,-0.476979,-0.575867,0.500946,-0.435799
27991,,9.670659,1.070893,-1.483579,0.008262,0.007589,-0.007782,1.038574,-0.220703,-0.223145,-0.476966,-0.575893,0.500925,-0.435803
27992,,9.698736,1.059411,-1.499297,0.010219,0.006760,-0.002754,1.036377,-0.220703,-0.223145,-0.476940,-0.575909,0.500911,-0.435828
27993,,9.719843,1.058923,-1.461671,0.012508,0.014935,-0.007749,1.038574,-0.216309,-0.225342,-0.476933,-0.575929,0.500863,-0.435864
27994,,9.688078,1.086433,-1.424556,0.005064,0.027564,-0.008155,1.038574,-0.220703,-0.225342,-0.476978,-0.575909,0.500784,-0.435933
27995,,9.663446,1.102892,-1.439797,-0.003164,0.026771,-0.005054,1.038574,-0.220703,-0.225342,-0.477039,-0.575859,0.500750,-0.435970
27996,,9.671702,1.073567,-1.474821,-0.007560,0.027009,-0.007765,1.036377,-0.218506,-0.221191,-0.477112,-0.575816,0.500692,-0.436014
27997,,9.650182,1.094023,-1.524354,-0.008874,0.022765,-0.002931,1.033936,-0.220703,-0.223145,-0.477175,-0.575756,0.500686,-0.436030
27998,,9.650464,1.094343,-1.522335,-0.008760,0.017073,-0.000923,1.033936,-0.220703,-0.227539,-0.477213,-0.575712,0.500678,-0.436057
27999,,9.637675,1.065345,-1.595350,-0.006165,0.010071,-0.000562,1.036377,-0.222900,-0.227295,-0.477232,-0.575680,0.500703,-0.436049
28000,,9.636973,1.084620,-1.609517,-0.003758,0.012552,-0.003546,1.038330,-0.214111,-0.227539,-0.477246,-0.575668,0.500684,-0.436072
28001,,9.662069,1.069277,-1.590312,0.000940,0.014516,-0.006174,1.043213,-0.218262,-0.223145,-0.477267,-0.575657,0.500668,-0.436081
28002,,9.663163,1.050605,-1.573345,0.002590,0.020171,-0.001148,1.036377,-0.222900,-0.225342,-0.477293,-0.575622,0.500640,-0.436130
28003,,9.662616,1.069852,-1.586595,0.011990,0.024097,-0.006402,1.036377,-0.218506,-0.223145,-0.477308,-0.575618,0.500576,-0.436194
28004,,9.630856,1.096923,-1.549461,0.022211,0.022163,-0.003795,1.029297,-0.216309,-0.223145,-0.477273,-0.575646,0.500477,-0.436308
28005,,9.667248,1.148292,-1.486088,0.017740,0.017507,-0.002501,1.038574,-0.218506,-0.223145,-0.477246,-0.575660,0.500427,-0.436377
28006,,9.646511,1.149234,-1.521625,0.013648,0.011265,-0.005211,1.033936,-0.218506,-0.227539,-0.477223,-0.575682,0.500384,-0.436421
28007,,9.671541,1.133784,-1.502695,0.009063,0.012298,-0.005925,1.036377,-0.220703,-0.220947,-0.477216,-0.575696,0.500356,-0.436445
28008,,9.691754,1.152191,-1.480064,0.007442,0.014542,-0.001100,1.036377,-0.220703,-0.227539,-0.477203,-0.575693,0.500322,-0.436500
28009,,9.700777,1.103453,-1.501232,0.005758,0.010780,-0.006793,1.033936,-0.220703,-0.223145,-0.477203,-0.575704,0.500301,-0.436510
28010,,9.696962,1.118919,-1.480740,0.009514,0.025391,-0.004756,1.033936,-0.218506,-0.223145,-0.477217,-0.575695,0.500223,-0.436596
28011,,9.648316,1.131838,-1.498961,0.006018,0.024666,-0.003623,1.038574,-0.218506,-0.223145,-0.477243,-0.575668,0.500179,-0.436653
28012,,9.669513,1.131226,-1.459947,0.001316,0.022704,-0.000999,1.038574,-0.220703,-0.223145,-0.477272,-0.575630,0.500142,-0.436714
28013,,9.649781,1.113199,-1.479302,-0.000747,0.020530,-0.002689,1.033936,-0.220703,-0.225342,-0.477306,-0.575594,0.500125,-0.436744
28014,,9.649244,1.132424,-1.492530,-0.005522,0.022356,-0.001405,1.033936,-0.220703,-0.216797,-0.477348,-0.575548,0.500095,-0.436793
28015,,9.658454,1.083653,-1.512759,-0.008791,0.018945,-0.001606,1.038574,-0.220703,-0.223145,-0.477399,-0.575493,0.500102,-0.436802
28016,,9.671479,1.113453,-1.436101,-0.013290,0.024862,-0.006332,1.033936,-0.214111,-0.225586,-0.477478,-0.575438,0.500066,-0.436830
28017,,9.651772,1.096035,-1.454955,-0.020320,0.025308,-0.004739,1.036377,-0.218506,-0.218994,-0.477585,-0.575350,0.500074,-0.436820
28018,,9.644740,1.107817,-1.399639,-0.020018,0.018830,-0.004734,1.031738,-0.220703,-0.220947,-0.477681,-0.575270,0.500092,-0.436798
28019,,9.648182,1.112498,-1.431879,-0.008402,0.017348,-0.005604,1.036133,-0.216309,-0.221191,-0.477736,-0.575230,0.500090,-0.436794
28020,,9.654059,1.060101,-1.418427,-0.006075,0.014938,-0.004576,1.031738,-0.220703,-0.216797,-0.477774,-0.575200,0.500078,-0.436805
28021,,9.688868,1.056679,-1.501415,0.003056,0.014767,-0.003803,1.036377,-0.222900,-0.220947,-0.477785,-0.575188,0.500063,-0.436826
28022,,9.733150,1.078214,-1.475574,0.007147,0.021000,-0.001083,1.036133,-0.216309,-0.218994,-0.477780,-0.575181,0.500001,-0.436912
28023,,9.689400,1.057058,-1.497709,0.009755,0.022681,-0.006061,1.040771,-0.218262,-0.223145,-0.477796,-0.575174,0.499946,-0.436967
28024,,9.679032,1.064390,-1.408663,0.009633,0.019686,-0.002722,1.033936,-0.216309,-0.218994,-0.477801,-0.575164,0.499897,-0.437032
28025,,9.678452,1.083280,-1.422513,0.009581,0.012909,0.001952,1.038574,-0.218506,-0.216797,-0.477775,-0.575157,0.499888,-0.437078
28026,,9.694509,1.116298,-1.381111,0.005227,0.011254,-0.000103,1.036377,-0.218506,-0.227539,-0.477765,-0.575149,0.499874,-0.437116
28027,,9.694672,1.116141,-1.380093,0.002777,0.010670,0.002205,1.027100,-0.218750,-0.218994,-0.477753,-0.575131,0.499886,-0.437139
28028,,9.670812,1.112636,-1.381673,0.008339,0.013561,0.002774,1.036377,-0.218506,-0.216797,-0.477732,-0.575117,0.499872,-0.437196
28029,,9.647767,1.090307,-1.367676,0.007416,0.016411,-0.001745,1.041016,-0.220459,-0.220947,-0.477730,-0.575107,0.499849,-0.437237
28030,,9.693611,1.073770,-1.311028,0.009409,0.022362,-0.001386,1.038818,-0.222900,-0.225342,-0.477732,-0.575094,0.499788,-0.437322
28031,,9.673144,1.074652,-1.345768,0.006071,0.022736,-0.002929,1.041016,-0.222656,-0.223145,-0.477752,-0.575070,0.499749,-0.437376
28032,,9.680045,1.082933,-1.411895,0.007475,0.023177,-0.006418,1.040771,-0.218262,-0.214600,-0.477763,-0.575072,0.499667,-0.437455
28033,,9.681046,1.064501,-1.394674,0.005483,0.017224,-0.006776,1.036377,-0.218506,-0.216797,-0.477780,-0.575069,0.499632,-0.437482
28034,,9.684565,1.068975,-1.427125,0.002997,0.018531,-0.005138,1.033936,-0.218506,-0.216797,-0.477801,-0.575056,0.499585,-0.437528
28035,,9.656643,1.081300,-1.408969,-0.007640,0.023929,-0.004438,1.034180,-0.225098,-0.220947,-0.477867,-0.575000,0.499570,-0.437547
28036,,9.612171,1.079375,-1.446262,-0.007605,0.022036,-0.003769,1.036133,-0.216309,-0.218994,-0.477915,-0.574960,0.499534,-0.437589
28037,,9.632354,1.098028,-1.422618,-0.007570,0.020144,-0.003100,1.036377,-0.222900,-0.218750,-0.477969,-0.574909,0.499531,-0.437601
28038,,9.644205,1.072362,-1.492586,-0.005014,0.015054,-0.003401,1.036133,-0.216309,-0.221191,-0.477998,-0.574882,0.499515,-0.437622
28039,,9.644377,1.072600,-1.491299,-0.001608,0.010897,-0.000519,1.041016,-0.220459,-0.218994,-0.478006,-0.574859,0.499528,-0.437628
28040,,9.674210,1.022854,-1.476025,-0.001277,0.002544,0.000151,1.036133,-0.216309,-0.221191,-0.477990,-0.574855,0.499550,-0.437626
28041,,9.678446,1.007864,-1.494198,0.009975,0.011309,-0.002035,1.040771,-0.218262,-0.216797,-0.477969,-0.574863,0.499533,-0.437659
28042,,9.686812,1.052324,-1.399977,0.019465,0.011442,-0.005916,1.036133,-0.216309,-0.221191,-0.477933,-0.574900,0.499474,-0.437716
28043,,9.682761,1.067520,-1.380388,0.017046,0.008969,-0.002943,1.033936,-0.216309,-0.223389,-0.477888,-0.574933,0.499444,-0.437757
28044,,9.675296,1.078777,-1.326868,0.004645,0.005734,-0.003944,1.040771,-0.216064,-0.216797,-0.477882,-0.574935,0.499448,-0.437756
28045,,9.655430,1.060937,-1.347887,-0.002195,0.005389,-0.004370,1.036377,-0.218506,-0.216797,-0.477886,-0.574932,0.499465,-0.437736
28046,,9.682074,1.087647,-1.394250,-0.005269,0.001192,-0.006583,1.031494,-0.214111,-0.218994,-0.477896,-0.574936,0.499481,-0.437702
28047,,9.686972,1.054330,-1.397360,-0.007790,0.004389,-0.005614,1.034180,-0.225098,-0.218750,-0.477916,-0.574925,0.499509,-0.437662
28048,,9.706102,1.092124,-1.390620,-0.012535,0.004322,-0.003675,1.033936,-0.216309,-0.221191,-0.477943,-0.574903,0.499537,-0.437631
28049,,9.681362,1.108592,-1.407645,-0.010445,0.015142,-0.007316,1.041016,-0.222656,-0.218750,-0.478001,-0.574867,0.499540,-0.437611
28050,,9.661571,1.091153,-1.427956,-0.003308,0.009027,-0.006887,1.033936,-0.216309,-0.218994,-0.478019,-0.574864,0.499526,-0.437610
28051,,9.709689,1.098307,-1.421656,0.007263,0.007412,-0.008915,1.036377,-0.220703,-0.220947,-0.478011,-0.574892,0.499504,-0.437608
28052,,9.661645,1.092581,-1.426362,0.009290,0.011469,-0.007883,1.033936,-0.218506,-0.223145,-0.478005,-0.574913,0.499460,-0.437638
28053,,9.666611,1.059247,-1.429138,0.005041,0.004147,-0.007944,1.040771,-0.216064,-0.218994,-0.477993,-0.574939,0.499453,-0.437623
28054,,9.667350,1.040967,-1.413505,0.002783,0.002771,-0.007641,1.033936,-0.214111,-0.216797,-0.477988,-0.574959,0.499449,-0.437608
28055,,9.695514,1.030092,-1.429200,-0.000390,0.004240,-0.011859,1.031738,-0.218506,-0.220947,-0.478000,-0.574982,0.499443,-0.437571
28056,,9.672208,1.008919,-1.416157,0.003961,0.005894,-0.009794,1.034180,-0.222900,-0.218750,-0.478007,-0.574999,0.499427,-0.437559
28057,,9.668009,1.024990,-1.396749,0.001835,0.007502,-0.012828,1.033936,-0.220703,-0.218994,-0.478023,-0.575023,0.499406,-0.437534
28058,,9.667271,1.044926,-1.411120,0.003464,0.013147,-0.007795,1.033936,-0.220703,-0.220947,-0.478024,-0.575040,0.499354,-0.437571
28059,,9.644074,1.023424,-1.397578,0.006021,0.008062,-0.008094,1.040771,-0.218262,-0.221191,-0.478019,-0.575060,0.499336,-0.437570
28060,,9.671546,1.031273,-1.428305,0.006055,0.006173,-0.007426,1.031494,-0.216309,-0.218994,-0.478003,-0.575089,0.499306,-0.437583
28061,,9.670756,1.050652,-1.443442,0.005992,-0.000586,-0.002754,1.043213,-0.222656,-0.220947,-0.477965,-0.575116,0.499324,-0.437570
28062,,9.693938,1.073166,-1.456316,0.002921,-0.004784,-0.004969,1.033936,-0.220703,-0.220947,-0.477925,-0.575156,0.499332,-0.437552
28063,,9.690473,1.069526,-1.422310,0.006970,0.003331,-0.002907,1.034180,-0.222900,-0.220947,-0.477894,-0.575176,0.499338,-0.437552
28064,,9.714526,1.073032,-1.419235,0.017477,0.005494,-0.006264,1.033936,-0.218506,-0.218994,-0.477833,-0.575238,0.499280,-0.437603
28065,,9.686359,1.085218,-1.402483,0.017143,0.013838,-0.006935,1.033936,-0.220703,-0.218994,-0.477808,-0.575270,0.499227,-0.437649
28066,,9.677323,1.134679,-1.378981,0.010071,0.016171,-0.006033,1.033936,-0.214111,-0.223389,-0.477801,-0.575283,0.499167,-0.437706
28067,,9.673273,1.150186,-1.358743,0.013575,0.016889,-0.007151,1.033936,-0.216309,-0.221191,-0.477795,-0.575301,0.499114,-0.437752
28068,,9.700881,1.157928,-1.388606,0.012530,0.016746,-0.008334,1.036377,-0.218506,-0.218994,-0.477806,-0.575305,0.499065,-0.437789
28069,,9.684632,1.144147,-1.442849,0.005525,0.015304,-0.006098,1.038574,-0.216309,-0.221191,-0.477816,-0.575304,0.499037,-0.437812
28070,,9.664941,1.126387,-1.463133,-0.007042,0.010974,-0.004444,1.036377,-0.222900,-0.223145,-0.477851,-0.575276,0.499041,-0.437806
28071,,9.669284,1.111960,-1.480610,-0.015160,0.013165,-0.004729,1.034180,-0.222900,-0.220947,-0.477912,-0.575227,0.499066,-0.437775
28072,,9.678621,1.063624,-1.501463,-0.019674,0.010414,-0.004127,1.036377,-0.218506,-0.216797,-0.477962,-0.575188,0.499079,-0.437757
28073,,9.621458,1.106927,-1.483542,-0.012701,0.013741,-0.007028,1.033936,-0.218506,-0.221191,-0.478022,-0.575149,0.499092,-0.437728
28074,,9.630036,1.077943,-1.519503,-0.017115,0.015855,-0.010430,1.033936,-0.216309,-0.221191,-0.478107,-0.575105,0.499084,-0.437702
28075,,9.650659,1.078449,-1.481381,-0.024797,0.004039,-0.008044,1.036377,-0.222900,-0.220947,-0.478180,-0.575061,0.499143,-0.437612
28076,,9.674676,1.082913,-1.477779,-0.027120,0.006434,-0.009077,1.033936,-0.218506,-0.223145,-0.478263,-0.575015,0.499180,-0.437541
28077,,9.699482,1.068339,-1.458759,-0.027285,0.005338,-0.006408,1.033936,-0.216309,-0.223389,-0.478343,-0.574958,0.499246,-0.437453
28078,,9.671246,1.080974,-1.441925,-0.022938,0.006994,-0.004339,1.036133,-0.211914,-0.221191,-0.478414,-0.574899,0.499298,-0.437393
28079,,9.670486,1.100667,-1.456647,-0.012295,0.001618,-0.005021,1.036133,-0.214111,-0.218994,-0.478439,-0.574882,0.499345,-0.437335
28080,,9.667031,1.097136,-1.422092,0.003402,0.006384,-0.003115,1.033936,-0.216309,-0.223389,-0.478444,-0.574871,0.499359,-0.437329
28081,,9.670551,1.101148,-1.455849,0.007849,0.002384,0.000953,1.033936,-0.218506,-0.216797,-0.478399,-0.574886,0.499376,-0.437337
28082,,9.657964,1.145811,-1.398808,0.018664,0.014623,0.002127,1.033936,-0.218506,-0.218994,-0.478353,-0.574896,0.499333,-0.437423
28083,,9.665143,1.208164,-1.320787,0.031697,-0.007450,0.009815,1.038330,-0.214111,-0.216797,-0.478196,-0.574967,0.499348,-0.437484
28084,,9.902791,1.272021,-1.098679,0.006228,-0.024313,0.007922,1.036377,-0.218506,-0.216797,-0.478080,-0.575016,0.499444,-0.437438
28085,,9.915215,1.381797,-1.119410,-0.044630,0.023865,-0.015500,1.036377,-0.218506,-0.218994,-0.478276,-0.574900,0.499478,-0.437338
28086,,9.599649,1.307034,-1.506641,-0.052808,0.029808,-0.017114,1.036377,-0.218506,-0.221191,-0.478511,-0.574759,0.499492,-0.437249
28087,,9.410208,1.151046,-1.614384,-0.001490,-0.040236,-0.000904,1.033936,-0.216309,-0.221191,-0.478391,-0.574850,0.499626,-0.437108
28088,,9.491654,0.993706,-1.508919,0.021818,-0.101048,0.001714,1.033936,-0.220703,-0.223145,-0.478048,-0.575121,0.499852,-0.436868
28089,,9.619206,0.961382,-1.528612,-0.030735,-0.138627,-0.007728,1.033936,-0.218506,-0.227539,-0.477781,-0.575374,0.500266,-0.436354
28090,,9.821568,0.808734,-1.624829,-0.020863,-0.094626,-0.013211,1.033936,-0.220703,-0.225342,-0.477602,-0.575573,0.500519,-0.435996
28091,,9.776416,0.862317,-1.524007,0.018762,-0.024107,-0.004950,1.036377,-0.220703,-0.218994,-0.477473,-0.575686,0.500559,-0.435942
28092,,9.667440,0.819134,-1.612888,0.048013,-0.040801,0.012445,1.033936,-0.220703,-0.223145,-0.477166,-0.575877,0.500595,-0.435984
28093,,9.658447,0.766552,-1.485432,0.067805,-0.065564,0.023880,1.036377,-0.220703,-0.225342,-0.476729,-0.576126,0.500710,-0.436002
28094,,9.632810,0.853577,-1.379151,0.056288,-0.059259,0.020742,1.029297,-0.214111,-0.225342,-0.476337,-0.576353,0.500799,-0.436028
28095,,9.571433,0.969719,-1.430332,0.033374,-0.070721,0.012628,1.031738,-0.218506,-0.227539,-0.476010,-0.576559,0.500968,-0.435918
28096,,9.658283,1.091419,-1.484560,0.029471,-0.067235,0.001903,1.031738,-0.218506,-0.225342,-0.475737,-0.576764,0.501108,-0.435784
28097,,9.700636,1.131131,-1.481412,0.046475,-0.039802,0.002753,1.033936,-0.220703,-0.229492,-0.475472,-0.576958,0.501147,-0.435772
28098,,9.673549,1.183896,-1.533506,0.047966,-0.017924,-0.000256,1.038574,-0.218506,-0.229736,-0.475262,-0.577119,0.501107,-0.435836
28099,,9.671663,1.221021,-1.565705,0.037788,-0.001329,0.002276,1.031738,-0.222900,-0.223145,-0.475119,-0.577209,0.501072,-0.435912
28100,,9.658604,1.284693,-1.524398,0.011979,0.015389,-0.001054,1.033936,-0.218506,-0.225342,-0.475093,-0.577218,0.501021,-0.435986
28101,,9.624988,1.349877,-1.517431,-0.017556,0.042735,-0.007286,1.036377,-0.222900,-0.225342,-0.475241,-0.577105,0.500974,-0.436028
28102,,9.544361,1.390592,-1.498030,-0.036124,0.058185,-0.014203,1.031738,-0.218506,-0.231689,-0.475490,-0.576940,0.500889,-0.436073
28103,,9.543369,1.430988,-1.521819,-0.062571,0.073121,-0.022712,1.033936,-0.218506,-0.225342,-0.475877,-0.576693,0.500823,-0.436053
28104,,9.507562,1.476589,-1.460267,-0.086871,0.069855,-0.032676,1.031494,-0.211914,-0.227783,-0.476352,-0.576416,0.500782,-0.435948
28105,,9.585369,1.377183,-1.351427,-0.126360,0.078981,-0.032151,1.038574,-0.220703,-0.220947,-0.476958,-0.576027,0.500814,-0.435763
28106,,9.528855,1.190393,-1.266250,-0.088310,0.067057,-0.040988,1.031982,-0.227295,-0.222900,-0.477450,-0.575772,0.500759,-0.435624
28107,,9.700352,1.012518,-1.458467,-0.051891,0.011167,-0.032209,1.036377,-0.220703,-0.223145,-0.477672,-0.575708,0.500790,-0.435430
28108,,10.086444,0.827330,-1.792124,-0.026892,-0.018836,-0.025407,1.038574,-0.220703,-0.225342,-0.477704,-0.575782,0.500810,-0.435274
28109,,10.078042,0.785141,-1.886489,-0.029358,-0.005533,-0.002723,1.036133,-0.216309,-0.227539,-0.477755,-0.575734,0.500917,-0.435158
28110,,9.735504,0.705565,-1.614887,-0.014257,0.007648,0.015683,1.036133,-0.214111,-0.225586,-0.477747,-0.575658,0.500989,-0.435185
28111,,9.515324,0.737716,-1.248633,0.004314,-0.018295,0.028565,1.041016,-0.220459,-0.225342,-0.477601,-0.575640,0.501143,-0.435191
28112,,9.447741,0.765814,-1.132548,0.006913,-0.047817,0.013869,1.033936,-0.220703,-0.225342,-0.477403,-0.575734,0.501301,-0.435102
28113,,9.596521,0.830904,-1.218727,0.014137,-0.029843,-0.001033,1.033936,-0.218506,-0.227539,-0.477264,-0.575839,0.501376,-0.435029
28114,,9.754838,0.927550,-1.418926,0.031619,0.032111,0.001605,1.033936,-0.216309,-0.227539,-0.477215,-0.575855,0.501248,-0.435210
28115,,9.715629,1.044331,-1.421540,0.058085,0.076249,0.003169,1.038330,-0.211914,-0.221191,-0.477206,-0.575823,0.500987,-0.435562
28116,,9.578707,1.185424,-1.465802,0.080228,0.041212,0.005772,1.036377,-0.225098,-0.216553,-0.477053,-0.575903,0.500768,-0.435877
28117,,9.706617,1.269399,-1.600621,0.035567,-0.031603,0.004797,1.040771,-0.218262,-0.225342,-0.476835,-0.576048,0.500817,-0.435866
28118,,9.750601,1.425697,-1.528515,-0.006849,-0.025554,0.000398,1.031494,-0.216309,-0.225342,-0.476746,-0.576111,0.500893,-0.435793
28119,,9.599298,1.398027,-1.479160,0.005782,-0.024982,0.000065,1.031738,-0.220703,-0.227539,-0.476641,-0.576183,0.500977,-0.435716
28120,,9.453703,1.316925,-1.419626,0.051861,-0.054432,0.001494,1.038330,-0.214111,-0.225586,-0.476326,-0.576426,0.501023,-0.435686
28121,,9.670027,1.252669,-1.517918,0.021682,-0.087990,-0.002892,1.033936,-0.218506,-0.223145,-0.476024,-0.576680,0.501215,-0.435460
28122,,9.766242,1.092849,-1.533630,0.003743,-0.043742,-0.006120,1.029541,-0.220703,-0.229492,-0.475898,-0.576799,0.501322,-0.435317
28123,,9.677386,0.989452,-1.503564,-0.011379,0.007428,-0.005815,1.038574,-0.218506,-0.225342,-0.475936,-0.576774,0.501350,-0.435276
28124,,9.599507,0.953277,-1.428052,0.007743,-0.008502,-0.005578,1.038574,-0.220703,-0.233887,-0.475873,-0.576835,0.501354,-0.435258
28125,,9.602404,0.957509,-1.464548,0.021700,-0.037588,-0.004565,1.038574,-0.218506,-0.231689,-0.475701,-0.576983,0.501421,-0.435173
28126,,9.660575,0.957175,-1.549991,0.005534,-0.037001,-0.003756,1.036133,-0.214111,-0.236084,-0.475570,-0.577096,0.501505,-0.435070
28127,,9.690658,0.968995,-1.618120,0.009618,-0.013447,-0.011728,1.036133,-0.216309,-0.227539,-0.475509,-0.577181,0.501520,-0.435007
28128,,9.682799,1.060844,-1.660954,0.017693,0.011483,-0.012981,1.036133,-0.216309,-0.231934,-0.475502,-0.577222,0.501457,-0.435032
28129,,9.642416,1.118550,-1.586305,0.032571,0.038654,-0.014487,1.029053,-0.211914,-0.229736,-0.475511,-0.577255,0.501290,-0.435171
28130,,9.560522,1.177248,-1.585046,0.058548,0.023061,-0.013821,1.031738,-0.218506,-0.231689,-0.475422,-0.577365,0.501115,-0.435324
28131,,9.692448,1.242272,-1.511455,0.052560,0.014984,-0.005705,1.033936,-0.218506,-0.225342,-0.475295,-0.577475,0.500986,-0.435466
28132,,9.730324,1.176606,-1.321520,0.039345,0.034101,-0.010062,1.031494,-0.216309,-0.223389,-0.475262,-0.577525,0.500814,-0.435633
28133,,9.683181,1.231048,-1.404725,0.018817,0.024385,-0.005968,1.036377,-0.222900,-0.223145,-0.475257,-0.577535,0.500735,-0.435717
28134,,9.705725,1.123281,-1.693901,-0.030973,-0.021684,-0.001702,1.029541,-0.220703,-0.231689,-0.475263,-0.577526,0.500862,-0.435576
28135,,9.684823,1.119441,-1.505644,-0.028220,-0.011011,0.000491,1.038574,-0.218506,-0.227539,-0.475290,-0.577485,0.500988,-0.435455
28136,,9.579593,1.076089,-1.398881,-0.028412,-0.001568,-0.002859,1.031738,-0.220703,-0.231689,-0.475344,-0.577438,0.501065,-0.435371
28137,,9.583659,1.062008,-1.417673,-0.030070,-0.005350,-0.008549,1.038574,-0.218506,-0.229736,-0.475410,-0.577403,0.501156,-0.435240
28138,,9.670641,1.051104,-1.514799,-0.023776,0.012808,-0.012156,1.033936,-0.220703,-0.227539,-0.475507,-0.577359,0.501160,-0.435188
28139,,9.656173,1.000151,-1.536766,-0.011629,0.043967,-0.010690,1.036377,-0.218506,-0.229736,-0.475648,-0.577266,0.501087,-0.435240
28140,,9.654060,1.057917,-1.578855,0.000963,0.037776,-0.006352,1.033936,-0.218506,-0.231689,-0.475721,-0.577214,0.500992,-0.435339
28141,,9.680249,1.024079,-1.542516,0.004286,0.022733,-0.009970,1.038574,-0.218506,-0.225342,-0.475762,-0.577204,0.500937,-0.435371
28142,,9.627114,1.052262,-1.543866,0.006868,-0.007558,-0.009417,1.033936,-0.218506,-0.229736,-0.475715,-0.577268,0.500933,-0.435342
28143,,9.678316,0.983332,-1.479396,0.030699,-0.038808,-0.001076,1.045410,-0.216064,-0.223389,-0.475506,-0.577432,0.500993,-0.435284
28144,,9.697711,1.001226,-1.461141,0.027341,-0.021886,0.001873,1.029297,-0.218506,-0.227539,-0.475342,-0.577547,0.501011,-0.435290
28145,,9.656902,0.982880,-1.521335,0.031497,-0.010779,0.000582,1.031738,-0.220703,-0.225342,-0.475197,-0.577647,0.501007,-0.435319
28146,,9.667374,1.049750,-1.478713,0.033437,-0.002939,0.000265,1.031738,-0.218506,-0.231689,-0.475061,-0.577743,0.500959,-0.435397
28147,,9.646645,1.049823,-1.515824,0.025035,0.003824,0.000650,1.041016,-0.224854,-0.233887,-0.474971,-0.577797,0.500934,-0.435452
28148,,9.636880,1.037676,-1.412933,0.030316,0.011299,0.001876,1.029297,-0.214111,-0.234131,-0.474869,-0.577857,0.500856,-0.435573
28149,,9.683429,1.081636,-1.436956,0.034435,0.024291,-0.000092,1.036377,-0.222900,-0.227295,-0.474805,-0.577890,0.500761,-0.435709
28150,,9.657018,1.134723,-1.484210,0.036161,0.018247,-0.003560,1.033936,-0.220703,-0.229492,-0.474729,-0.577948,0.500656,-0.435835
28151,,9.658148,1.115427,-1.467493,0.037050,0.017300,0.000294,1.033936,-0.220703,-0.227539,-0.474640,-0.578001,0.500572,-0.435958
28152,,9.630052,1.126982,-1.450688,0.038167,0.007618,-0.007679,1.033936,-0.220703,-0.229492,-0.474531,-0.578107,0.500463,-0.436061
28153,,9.665764,1.104259,-1.519706,0.008729,-0.004602,-0.005712,1.033936,-0.218506,-0.223145,-0.474481,-0.578156,0.500476,-0.436036
28154,,9.698114,1.077717,-1.554837,0.003741,-0.001973,-0.002448,1.034180,-0.222900,-0.231689,-0.474441,-0.578184,0.500484,-0.436033
28155,,9.662321,1.101133,-1.485838,-0.005513,0.003850,-0.005256,1.034180,-0.222900,-0.229492,-0.474453,-0.578180,0.500509,-0.435998
28156,,9.619311,1.060783,-1.494580,0.006074,-0.004372,-0.001410,1.038574,-0.218506,-0.229736,-0.474386,-0.578228,0.500508,-0.436008
28157,,9.677449,0.999361,-1.496589,0.010779,-0.011058,0.001339,1.033936,-0.216309,-0.223389,-0.474299,-0.578278,0.500552,-0.435986
28158,,9.650551,1.052497,-1.546977,0.023860,-0.013998,-0.002315,1.031738,-0.220703,-0.227539,-0.474179,-0.578371,0.500554,-0.435990
28159,,9.685252,1.048120,-1.632415,0.025562,-0.003469,-0.001316,1.040771,-0.218262,-0.227539,-0.474074,-0.578446,0.500540,-0.436020
28160,,9.672566,1.093223,-1.576879,0.033817,-0.002697,-0.004377,1.036377,-0.218506,-0.231689,-0.473950,-0.578552,0.500479,-0.436085
28161,,9.640013,1.119941,-1.542976,0.043199,-0.005559,-0.004908,1.033936,-0.220703,-0.229492,-0.473796,-0.578682,0.500421,-0.436145
28162,,9.657364,1.115469,-1.472617,0.033383,0.000788,-0.001053,1.031738,-0.220703,-0.229492,-0.473677,-0.578768,0.500366,-0.436224
28163,,9.681290,1.118885,-1.470574,0.018313,-0.008278,-0.008235,1.036377,-0.220703,-0.225342,-0.473596,-0.578854,0.500359,-0.436206
28164,,9.707568,1.145556,-1.518016,0.006520,0.000753,-0.010092,1.036377,-0.220703,-0.229492,-0.473569,-0.578905,0.500329,-0.436202
28165,,9.631249,1.151561,-1.506787,-0.012520,0.011049,-0.008382,1.033936,-0.218506,-0.227539,-0.473626,-0.578876,0.500344,-0.436163
28166,,9.657184,1.118056,-1.471834,-0.025565,0.012107,-0.004057,1.036377,-0.218506,-0.231689,-0.473711,-0.578806,0.500379,-0.436121
28167,,9.592756,1.097350,-1.531320,-0.030314,0.012047,-0.002118,1.036377,-0.218506,-0.227539,-0.473808,-0.578717,0.500448,-0.436055
28168,,9.616322,1.044909,-1.673597,-0.003381,0.002253,-0.002222,1.031738,-0.218506,-0.227539,-0.473805,-0.578712,0.500470,-0.436040
28169,,9.693460,1.020995,-1.669119,0.010745,-0.009174,0.000674,1.038574,-0.218506,-0.227539,-0.473724,-0.578760,0.500507,-0.436022
28170,,9.692424,1.039421,-1.685643,0.017431,-0.009908,0.003771,1.033936,-0.218506,-0.229736,-0.473617,-0.578817,0.500528,-0.436038
28171,,9.673942,1.057878,-1.546901,0.024639,-0.009284,-0.000471,1.034180,-0.222900,-0.229492,-0.473498,-0.578900,0.500533,-0.436052
28172,,9.622393,1.047218,-1.519393,0.018033,-0.012327,-0.002218,1.038818,-0.222900,-0.227295,-0.473389,-0.578986,0.500533,-0.436057
28173,,9.643817,1.028269,-1.468216,0.005670,-0.008829,-0.007902,1.036377,-0.220703,-0.225342,-0.473342,-0.579042,0.500556,-0.436006
28174,,9.662550,1.066406,-1.462967,-0.002504,-0.004744,-0.008861,1.027100,-0.218750,-0.231689,-0.473318,-0.579088,0.500552,-0.435976
28175,,9.669939,1.056022,-1.515858,-0.003910,0.003463,-0.010742,1.034180,-0.222900,-0.227295,-0.473336,-0.579102,0.500558,-0.435931
28176,,9.667232,1.113316,-1.561624,-0.003702,0.008720,-0.002248,1.036377,-0.222900,-0.229492,-0.473342,-0.579090,0.500557,-0.435941
28177,,9.672484,1.079576,-1.563860,-0.008493,0.010550,-0.000984,1.041016,-0.222656,-0.227295,-0.473369,-0.579053,0.500585,-0.435928
28178,,9.676777,1.064668,-1.581914,-0.001087,0.001740,-0.001856,1.027100,-0.218750,-0.227539,-0.473338,-0.579075,0.500578,-0.435941
28179,,9.696600,1.083367,-1.560346,0.008215,0.002658,-0.003735,1.036377,-0.218506,-0.227539,-0.473304,-0.579102,0.500580,-0.435941
28180,,9.658365,1.087907,-1.668707,0.027099,-0.008716,-0.002773,1.029541,-0.220703,-0.229492,-0.473187,-0.579194,0.500560,-0.435968
28181,,9.655782,1.064957,-1.620424,0.030523,-0.012859,0.000126,1.036133,-0.216309,-0.231934,-0.473040,-0.579298,0.500562,-0.435988
28182,,9.621700,1.050124,-1.521771,0.017719,-0.005864,-0.002241,1.029541,-0.220703,-0.233887,-0.472958,-0.579357,0.500561,-0.435998
28183,,9.587660,1.035962,-1.422493,0.010105,-0.002313,-0.009865,1.036377,-0.220703,-0.227539,-0.472919,-0.579415,0.500553,-0.435973
28184,,9.618097,1.047806,-1.488603,-0.002102,-0.006363,-0.012851,1.036377,-0.220703,-0.233887,-0.472907,-0.579465,0.500554,-0.435918
28185,,9.645259,1.055951,-1.520376,-0.002783,-0.000169,-0.008212,1.034180,-0.225098,-0.233643,-0.472907,-0.579483,0.500574,-0.435871
28186,,9.696525,1.067332,-1.549092,-0.007374,0.000856,-0.008945,1.029541,-0.227295,-0.231445,-0.472910,-0.579505,0.500570,-0.435843
28187,,9.692587,1.008109,-1.660392,0.005193,0.005180,-0.010626,1.038574,-0.218506,-0.225342,-0.472906,-0.579537,0.500553,-0.435825
28188,,9.688373,1.023876,-1.641304,0.017479,0.005457,-0.006290,1.031738,-0.222900,-0.233887,-0.472840,-0.579605,0.500486,-0.435884
28189,,9.683295,1.057897,-1.637710,0.020422,0.006705,-0.000748,1.033936,-0.220703,-0.231689,-0.472774,-0.579644,0.500460,-0.435933
28190,,9.647620,1.080913,-1.568442,0.028680,0.007469,-0.003807,1.033936,-0.216309,-0.229736,-0.472682,-0.579719,0.500383,-0.436021
28191,,9.646742,1.099518,-1.583828,0.044957,0.003066,-0.003231,1.031738,-0.220703,-0.229492,-0.472541,-0.579830,0.500306,-0.436115
28192,,9.618487,1.110841,-1.568181,0.033438,-0.001111,-0.000367,1.036377,-0.220703,-0.238281,-0.472421,-0.579913,0.500263,-0.436184
28193,,9.617559,1.129330,-1.583964,0.003344,-0.000366,0.001549,1.036377,-0.218506,-0.231689,-0.472381,-0.579922,0.500298,-0.436174
28194,,9.617499,1.129652,-1.584099,-0.007294,-0.002920,-0.007595,1.027100,-0.220947,-0.233887,-0.472388,-0.579933,0.500326,-0.436121
28195,,9.665462,1.137483,-1.578544,-0.014304,0.004276,-0.010726,1.031738,-0.220703,-0.229492,-0.472438,-0.579920,0.500354,-0.436052
28196,,9.693696,1.127030,-1.593706,-0.021434,0.008508,-0.010509,1.031738,-0.222900,-0.227295,-0.472515,-0.579885,0.500372,-0.435995
28197,,9.673950,1.109972,-1.613711,-0.018049,0.014875,-0.013657,1.036377,-0.218506,-0.231689,-0.472609,-0.579848,0.500373,-0.435940
28198,,9.677343,1.115008,-1.646442,-0.009024,0.011746,-0.009515,1.033936,-0.218506,-0.229736,-0.472653,-0.579836,0.500353,-0.435931
28199,,9.700010,1.077909,-1.577409,0.001168,0.011731,-0.007537,1.029297,-0.218506,-0.225342,-0.472670,-0.579836,0.500338,-0.435930
28200,,9.655373,1.075210,-1.616086,0.012488,0.008093,-0.003027,1.033936,-0.218506,-0.231689,-0.472637,-0.579858,0.500308,-0.435970
28201,,9.680443,1.059890,-1.597094,0.014704,0.011350,-0.004009,1.033936,-0.220703,-0.238281,-0.472606,-0.579882,0.500275,-0.436010
28202,,9.633480,1.034465,-1.585873,0.014624,0.015119,-0.005360,1.033936,-0.220703,-0.229492,-0.472588,-0.579901,0.500219,-0.436070
28203,,9.653474,1.053509,-1.562843,-0.009749,0.019822,-0.005559,1.036377,-0.218506,-0.229736,-0.472653,-0.579852,0.500214,-0.436070
28204,,9.603290,1.024903,-1.516398,-0.019135,0.022675,-0.005037,1.033936,-0.220703,-0.231689,-0.472748,-0.579778,0.500207,-0.436073
28205,,9.625674,1.066922,-1.542782,-0.018366,0.012707,-0.008321,1.036377,-0.220703,-0.227539,-0.472826,-0.579731,0.500231,-0.436024
28206,,9.701176,1.082011,-1.567398,-0.027468,0.010980,-0.008445,1.036377,-0.218506,-0.227539,-0.472918,-0.579677,0.500254,-0.435970
28207,,9.722012,1.082794,-1.528736,-0.024690,0.019768,-0.005601,1.033936,-0.218506,-0.231689,-0.473025,-0.579593,0.500282,-0.435933
28208,,9.629513,1.073751,-1.571766,-0.013047,0.018288,-0.006426,1.033936,-0.218506,-0.229736,-0.473099,-0.579542,0.500273,-0.435931
28209,,9.605616,1.070701,-1.573499,0.012608,0.002442,-0.000992,1.033936,-0.218506,-0.231689,-0.473045,-0.579573,0.500274,-0.435947
28210,,9.626185,1.070396,-1.537176,0.022764,-0.010370,-0.004801,1.031738,-0.218506,-0.233887,-0.472940,-0.579664,0.500261,-0.435954
28211,,9.630284,1.055486,-1.556775,0.011043,-0.005126,-0.005324,1.036377,-0.220703,-0.231689,-0.472881,-0.579718,0.500271,-0.435934
28212,,9.657622,1.063104,-1.588100,-0.001043,0.008465,-0.006552,1.031738,-0.220703,-0.233887,-0.472892,-0.579720,0.500257,-0.435936
28213,,9.662004,1.048613,-1.605704,0.002179,0.013755,-0.007024,1.036377,-0.220703,-0.233887,-0.472910,-0.579717,0.500237,-0.435945
28214,,9.628687,1.095060,-1.585013,0.002060,0.019406,-0.009048,1.036377,-0.218506,-0.229736,-0.472940,-0.579713,0.500178,-0.435984
28215,,9.650408,1.076698,-1.531138,0.001174,0.011720,-0.007531,1.033936,-0.216309,-0.227539,-0.472957,-0.579712,0.500163,-0.435983
28216,,9.721650,1.106372,-1.537329,-0.008297,0.009725,-0.002994,1.036377,-0.225098,-0.231689,-0.472992,-0.579679,0.500179,-0.435973
28217,,9.671312,1.077482,-1.491804,-0.006160,0.016749,-0.005323,1.031738,-0.222900,-0.227295,-0.473038,-0.579645,0.500174,-0.435973
28218,,9.643147,1.089654,-1.474606,0.005603,0.009623,-0.004120,1.036377,-0.225098,-0.231689,-0.473005,-0.579677,0.500122,-0.436026
28219,,9.646623,1.093663,-1.507946,-0.005961,0.007329,-0.001950,1.036377,-0.220703,-0.229492,-0.473019,-0.579656,0.500149,-0.436008
28220,,9.671635,1.078679,-1.488842,-0.008091,0.008914,-0.004990,1.036377,-0.220703,-0.229492,-0.473031,-0.579654,0.500131,-0.436018
28221,,9.660657,1.030509,-1.546289,-0.016511,0.015675,-0.004640,1.031738,-0.222900,-0.231689,-0.473102,-0.579596,0.500154,-0.435991
28222,,9.630743,1.080595,-1.559494,-0.019050,0.018873,-0.003688,1.029297,-0.218506,-0.231689,-0.473174,-0.579538,0.500148,-0.435998
28223,,9.627565,1.077746,-1.523337,-0.026735,0.017557,-0.007302,1.036377,-0.220703,-0.231689,-0.473285,-0.579459,0.500181,-0.435945
28224,,9.635440,1.067348,-1.574501,-0.024320,0.011395,-0.004909,1.033936,-0.220703,-0.231689,-0.473366,-0.579396,0.500214,-0.435902
28225,,9.658679,1.090562,-1.585760,-0.005745,0.015126,-0.009305,1.034180,-0.222900,-0.229492,-0.473416,-0.579376,0.500201,-0.435890
28226,,9.687128,1.079655,-1.600415,0.005770,0.010700,-0.006780,1.033691,-0.211914,-0.227783,-0.473400,-0.579404,0.500150,-0.435929
28227,,9.659733,1.072941,-1.568526,0.004922,0.001135,-0.004597,1.038818,-0.222900,-0.223145,-0.473373,-0.579428,0.500160,-0.435914
28228,,9.684641,1.057946,-1.550033,0.004844,0.004901,-0.005944,1.029541,-0.220703,-0.227539,-0.473361,-0.579447,0.500144,-0.435920
28229,,9.660727,1.055086,-1.551819,0.000896,0.016287,-0.006872,1.038818,-0.222900,-0.233887,-0.473389,-0.579435,0.500121,-0.435933
28230,,9.645553,1.021984,-1.590485,0.011288,0.015478,-0.006874,1.031738,-0.220703,-0.233887,-0.473369,-0.579465,0.500046,-0.436001
28231,,9.636123,1.071554,-1.567445,0.016124,0.011770,-0.007454,1.036377,-0.222900,-0.229492,-0.473342,-0.579500,0.499999,-0.436037
28232,,9.663744,1.079150,-1.597433,0.007498,0.019330,-0.005111,1.029053,-0.211914,-0.225586,-0.473340,-0.579508,0.499929,-0.436110
28233,,9.630465,1.125218,-1.576187,0.007136,0.027663,-0.005808,1.034180,-0.225098,-0.231689,-0.473375,-0.579483,0.499868,-0.436174
28234,,9.599852,1.114834,-1.508503,-0.003897,0.018102,-0.005621,1.036133,-0.216309,-0.229736,-0.473419,-0.579452,0.499843,-0.436197
28235,,9.642841,1.156348,-1.497786,-0.015539,0.019564,-0.004811,1.033936,-0.220703,-0.227539,-0.473497,-0.579388,0.499854,-0.436183
28236,,9.631224,1.127141,-1.570164,-0.018799,0.016156,-0.005019,1.038574,-0.216309,-0.223389,-0.473577,-0.579327,0.499864,-0.436166
28237,,9.657951,1.153972,-1.615515,-0.018474,0.009702,-0.004995,1.033936,-0.220703,-0.229492,-0.473640,-0.579278,0.499904,-0.436116
28238,,9.663290,1.120673,-1.617732,-0.013845,0.006805,-0.003578,1.038574,-0.220703,-0.236084,-0.473677,-0.579248,0.499926,-0.436092
28239,,9.664171,1.102435,-1.601894,-0.013275,-0.002335,-0.004879,1.036377,-0.225098,-0.229492,-0.473694,-0.579238,0.499984,-0.436020
28240,,9.659027,1.057728,-1.502193,-0.008290,0.009703,-0.002994,1.033936,-0.220703,-0.227539,-0.473702,-0.579231,0.499969,-0.436038
28241,,9.680520,1.039057,-1.448938,-0.014849,0.004771,-0.004088,1.033936,-0.218506,-0.229736,-0.473740,-0.579200,0.500015,-0.435985
28242,,9.636038,1.036463,-1.488024,-0.003493,0.007882,-0.004245,1.033936,-0.216309,-0.229736,-0.473747,-0.579197,0.500007,-0.435991
28243,,9.660067,1.040490,-1.484629,0.005057,0.004094,-0.007932,1.034180,-0.222900,-0.231689,-0.473734,-0.579223,0.500001,-0.435976
28244,,9.691909,1.033244,-1.534259,0.000299,0.004031,-0.006008,1.031738,-0.220703,-0.236084,-0.473725,-0.579241,0.499991,-0.435975
28245,,9.660057,1.041832,-1.483752,-0.003077,0.006268,-0.008236,1.033936,-0.218506,-0.231689,-0.473742,-0.579244,0.499996,-0.435946
28246,,9.660062,1.042638,-1.483151,-0.000782,0.005761,-0.007864,1.029541,-0.225098,-0.229492,-0.473745,-0.579258,0.499983,-0.435939
28247,,9.663610,1.047217,-1.516325,-0.001146,0.014092,-0.008556,1.031738,-0.218506,-0.233887,-0.473777,-0.579250,0.499965,-0.435937
28248,,9.638908,1.063182,-1.533023,0.002741,0.019260,-0.003168,1.036377,-0.218506,-0.227539,-0.473783,-0.579242,0.499912,-0.436002
28249,,9.634717,1.078492,-1.512965,0.014708,0.011355,-0.003951,1.036377,-0.220703,-0.225342,-0.473751,-0.579265,0.499879,-0.436042
28250,,9.662276,1.086077,-1.543626,0.006103,0.004241,-0.006745,1.033936,-0.216309,-0.229736,-0.473724,-0.579303,0.499846,-0.436060
28251,,9.683723,1.067287,-1.490544,0.000849,0.009553,-0.002176,1.038574,-0.220703,-0.227539,-0.473725,-0.579293,0.499852,-0.436064
28252,,9.638462,1.083400,-1.544756,0.007996,0.013944,-0.007737,1.033936,-0.218506,-0.223145,-0.473725,-0.579309,0.499798,-0.436105
28253,,9.634146,1.098943,-1.525273,0.022049,0.006341,-0.006148,1.033936,-0.218506,-0.229736,-0.473664,-0.579367,0.499755,-0.436144
28254,,9.678610,1.102314,-1.485454,0.026965,-0.001121,-0.005379,1.031738,-0.218506,-0.233887,-0.473567,-0.579455,0.499702,-0.436194
28255,,9.678558,1.102569,-1.485603,0.022299,0.003648,-0.007470,1.036377,-0.218506,-0.227539,-0.473502,-0.579522,0.499660,-0.436222
28256,,9.652883,1.137315,-1.518371,0.009928,0.021758,-0.008062,1.033936,-0.218506,-0.229736,-0.473518,-0.579524,0.499587,-0.436285
28257,,9.609527,1.115839,-1.540838,0.009968,0.019876,-0.007388,1.036133,-0.216309,-0.223389,-0.473530,-0.579526,0.499534,-0.436331
28258,,9.618504,1.086086,-1.576839,0.010371,0.009668,-0.006018,1.031738,-0.220703,-0.229492,-0.473514,-0.579548,0.499496,-0.436363
28259,,9.637268,1.124082,-1.570006,0.008287,0.009365,-0.008387,1.036133,-0.216309,-0.223389,-0.473506,-0.579572,0.499469,-0.436371
28260,,9.666583,1.094275,-1.569730,0.005066,0.004081,-0.007928,1.036377,-0.220703,-0.236084,-0.473490,-0.579603,0.499445,-0.436375
28261,,9.686163,1.113507,-1.547749,0.004817,0.006768,-0.006606,1.038574,-0.218506,-0.229736,-0.473482,-0.579620,0.499436,-0.436371
28262,,9.662195,1.110635,-1.550005,-0.005537,0.005689,-0.005948,1.029541,-0.227295,-0.225098,-0.473493,-0.579620,0.499434,-0.436360
28263,,9.681738,1.129811,-1.528261,-0.009933,-0.002696,-0.003333,1.031738,-0.222900,-0.225342,-0.473497,-0.579615,0.499490,-0.436300
28264,,9.707536,1.095773,-1.494118,0.002972,0.007971,0.000863,1.033936,-0.214111,-0.227539,-0.473445,-0.579643,0.499448,-0.436366
28265,,9.632122,1.081556,-1.467927,0.000926,0.005789,-0.000834,1.038818,-0.222900,-0.229492,-0.473433,-0.579638,0.499468,-0.436363
28266,,9.652674,1.081308,-1.430282,0.012284,0.008898,-0.000978,1.031738,-0.220703,-0.229492,-0.473394,-0.579658,0.499436,-0.436415
28267,,9.668686,1.058514,-1.535357,0.011530,0.004180,-0.002811,1.034180,-0.222900,-0.229492,-0.473351,-0.579687,0.499430,-0.436429
28268,,9.664310,1.073973,-1.516140,0.003527,0.009302,-0.006468,1.031738,-0.220703,-0.223145,-0.473336,-0.579713,0.499386,-0.436462
28269,,9.689321,1.059236,-1.496483,-0.002641,0.017413,-0.006433,1.036133,-0.214111,-0.225586,-0.473375,-0.579689,0.499369,-0.436471
28270,,9.656673,1.086531,-1.460279,-0.004104,0.018877,-0.003628,1.033936,-0.218506,-0.227539,-0.473419,-0.579650,0.499347,-0.436500
28271,,9.659557,1.109857,-1.507987,-0.003546,0.020207,-0.010957,1.036377,-0.218506,-0.225342,-0.473478,-0.579629,0.499312,-0.436504
28272,,9.684661,1.095335,-1.487491,-0.004180,0.022629,-0.004972,1.038574,-0.220703,-0.229492,-0.473529,-0.579591,0.499272,-0.436546
28273,,9.672566,1.084795,-1.574945,0.002802,0.025938,-0.007856,1.033936,-0.220703,-0.225342,-0.473577,-0.579564,0.499219,-0.436590
28274,,9.669314,1.081461,-1.538504,0.007045,0.022787,-0.001768,1.036377,-0.222900,-0.229492,-0.473578,-0.579555,0.499150,-0.436680
28275,,9.620786,1.093588,-1.557621,0.009689,0.024418,-0.006725,1.036377,-0.218506,-0.231689,-0.473600,-0.579545,0.499089,-0.436739
28276,,9.654001,1.067152,-1.589951,0.003787,0.019380,-0.001984,1.029297,-0.216309,-0.227539,-0.473603,-0.579534,0.499038,-0.436807
28277,,9.629472,1.082759,-1.606227,0.001380,0.025514,-0.004378,1.036133,-0.216309,-0.225342,-0.473647,-0.579497,0.498999,-0.436854
28278,,9.646579,1.079143,-1.532716,-0.005602,0.022202,-0.001497,1.029541,-0.220703,-0.225342,-0.473705,-0.579434,0.498990,-0.436885
28279,,9.647693,1.060461,-1.515507,-0.005201,0.012009,-0.000129,1.036133,-0.214111,-0.229736,-0.473725,-0.579399,0.499010,-0.436887
28280,,9.666524,1.097991,-1.508192,-0.006455,0.012664,0.000680,1.033936,-0.220703,-0.227539,-0.473753,-0.579355,0.499026,-0.436898
28281,,9.671168,1.083076,-1.525661,-0.017600,0.008745,-0.001186,1.034180,-0.222900,-0.225342,-0.473802,-0.579301,0.499077,-0.436857
28282,,9.647246,1.080063,-1.527862,-0.005489,0.003801,-0.005281,1.033936,-0.216309,-0.231934,-0.473795,-0.579316,0.499067,-0.436856
28283,,9.670442,1.102805,-1.539699,0.003111,0.010907,-0.002468,1.038574,-0.220703,-0.225342,-0.473793,-0.579310,0.499064,-0.436870
28284,,9.665225,1.137044,-1.535547,0.011387,0.011685,-0.005482,1.036377,-0.220703,-0.227539,-0.473774,-0.579331,0.499017,-0.436915
28285,,9.670768,1.103313,-1.537291,0.009595,0.019584,-0.002700,1.036377,-0.222900,-0.227295,-0.473776,-0.579322,0.498979,-0.436969
28286,,9.643364,1.096205,-1.504607,0.004116,0.012933,-0.001954,1.031738,-0.222900,-0.231689,-0.473756,-0.579332,0.498935,-0.437028
28287,,9.677314,1.050576,-1.522693,0.010105,0.003765,0.000684,1.033936,-0.216309,-0.225342,-0.473709,-0.579350,0.498943,-0.437046
28288,,9.673786,1.046731,-1.487867,0.016767,0.013508,-0.002213,1.036377,-0.218506,-0.225342,-0.473668,-0.579376,0.498887,-0.437120
28289,,9.659587,1.110959,-1.446439,0.009959,0.011267,-0.002005,1.038574,-0.220703,-0.227539,-0.473646,-0.579383,0.498870,-0.437153
28290,,9.656077,1.107243,-1.411307,0.005194,0.011206,-0.000096,1.038574,-0.216309,-0.227539,-0.473626,-0.579384,0.498846,-0.437201
28291,,9.644036,1.096309,-1.500222,-0.001009,0.008417,-0.006544,1.034180,-0.222900,-0.225342,-0.473639,-0.579384,0.498846,-0.437188
28292,,9.638735,1.130957,-1.496248,-0.003303,0.008921,-0.006923,1.036377,-0.225098,-0.223145,-0.473654,-0.579385,0.498827,-0.437191
28293,,9.628358,1.082850,-1.554105,-0.007890,0.009927,-0.007681,1.033936,-0.220703,-0.227539,-0.473693,-0.579368,0.498836,-0.437162
28294,,9.680945,1.075472,-1.565597,0.000961,0.014346,-0.006186,1.033936,-0.220703,-0.231689,-0.473690,-0.579384,0.498776,-0.437213
28295,,9.677450,1.072482,-1.529834,-0.003699,0.019102,-0.008289,1.036377,-0.218506,-0.229736,-0.473741,-0.579358,0.498752,-0.437219
28296,,9.677628,1.073062,-1.528301,-0.010791,0.010977,-0.001406,1.038574,-0.218506,-0.229736,-0.473772,-0.579321,0.498766,-0.437219
28297,,9.683131,1.039693,-1.530161,-0.014984,0.012240,-0.006826,1.036133,-0.214111,-0.229736,-0.473835,-0.579279,0.498787,-0.437181
28298,,9.699918,1.036520,-1.457163,-0.008715,0.021720,-0.005056,1.031738,-0.218506,-0.229736,-0.473910,-0.579218,0.498777,-0.437192
28299,,9.700212,1.037264,-1.454676,-0.005311,0.028058,-0.008170,1.038574,-0.216309,-0.223389,-0.473988,-0.579168,0.498736,-0.437221
28300,,9.676572,1.034439,-1.454943,0.004868,0.028071,-0.006131,1.033936,-0.220703,-0.229492,-0.474036,-0.579135,0.498669,-0.437290
28301,,9.655851,1.053887,-1.504875,0.001141,0.028159,-0.003038,1.038574,-0.220703,-0.225342,-0.474084,-0.579087,0.498628,-0.437347
28302,,9.652494,1.050317,-1.468259,-0.005811,0.022974,0.000501,1.033936,-0.218506,-0.225342,-0.474118,-0.579040,0.498597,-0.437409
28303,,9.671426,1.087873,-1.459812,-0.008103,0.023474,0.000121,1.034180,-0.222900,-0.225342,-0.474174,-0.578973,0.498596,-0.437437
28304,,9.632937,1.050615,-1.500926,-0.011544,0.019007,0.002560,1.031494,-0.216309,-0.223389,-0.474211,-0.578915,0.498593,-0.437477
28305,,9.579849,1.077535,-1.502332,-0.001649,0.010829,-0.000555,1.036377,-0.218506,-0.225342,-0.474218,-0.578893,0.498606,-0.437484
28306,,9.587361,1.085395,-1.570216,-0.002645,-0.003945,-0.006882,1.033936,-0.216309,-0.231934,-0.474210,-0.578912,0.498631,-0.437439
28307,,9.638110,1.115696,-1.614049,-0.001642,-0.001919,-0.006365,1.038574,-0.216309,-0.223389,-0.474198,-0.578932,0.498658,-0.437394
28308,,9.662782,1.101169,-1.595690,-0.000205,-0.001508,-0.009837,1.033936,-0.220703,-0.227539,-0.474202,-0.578954,0.498670,-0.437348
28309,,9.672913,1.150784,-1.537070,0.004200,-0.003578,-0.006409,1.038574,-0.220703,-0.220947,-0.474169,-0.578991,0.498688,-0.437314
28310,,9.683598,1.083296,-1.543638,0.002728,-0.002116,-0.003607,1.031738,-0.220703,-0.231689,-0.474124,-0.579031,0.498682,-0.437317
28311,,9.712887,1.053164,-1.544001,0.008534,-0.001901,-0.004322,1.033936,-0.218506,-0.227539,-0.474078,-0.579070,0.498692,-0.437303
28312,,9.705359,1.046159,-1.475690,0.003840,0.004723,-0.007099,1.033936,-0.220703,-0.225342,-0.474063,-0.579096,0.498673,-0.437307
28313,,9.672311,1.072998,-1.440944,0.012108,0.007820,0.001734,1.033936,-0.218506,-0.225342,-0.474018,-0.579107,0.498670,-0.437344
28314,,9.667813,1.088095,-1.421838,0.008210,0.004526,-0.004341,1.036377,-0.218506,-0.229736,-0.473982,-0.579139,0.498644,-0.437370
28315,,9.643048,1.103557,-1.440058,-0.001291,0.002528,0.000135,1.036377,-0.218506,-0.223145,-0.473967,-0.579134,0.498679,-0.437354
28316,,9.675407,1.095975,-1.489135,-0.009316,0.009499,-0.004213,1.036377,-0.220703,-0.229492,-0.473999,-0.579109,0.498686,-0.437345
28317,,9.612766,1.055833,-1.534278,-0.018488,0.011504,-0.005740,1.036133,-0.216309,-0.223389,-0.474068,-0.579058,0.498719,-0.437299
28318,,9.616587,1.060356,-1.567462,-0.010064,0.004790,-0.006052,1.029541,-0.222900,-0.220947,-0.474095,-0.579045,0.498734,-0.437270
28319,,9.660727,1.064350,-1.527051,-0.002895,-0.001267,-0.005559,1.041016,-0.220459,-0.225342,-0.474087,-0.579059,0.498764,-0.437226
28320,,9.664420,1.068828,-1.561064,-0.000491,0.003044,-0.009184,1.036133,-0.216309,-0.227539,-0.474071,-0.579100,0.498729,-0.437229
28321,,9.664364,1.069614,-1.560874,0.006388,0.001541,-0.008038,1.036133,-0.216309,-0.223389,-0.474048,-0.579135,0.498726,-0.437211
28322,,9.644935,1.051485,-1.582479,0.020076,0.002281,-0.007088,1.034180,-0.222900,-0.220947,-0.473994,-0.579192,0.498689,-0.437236
28323,,9.669613,1.036437,-1.564489,0.028574,-0.008178,-0.006057,1.034180,-0.222900,-0.225342,-0.473878,-0.579297,0.498666,-0.437250
28324,,9.688830,1.055191,-1.543789,0.022515,-0.005716,-0.004020,1.033936,-0.216309,-0.227539,-0.473756,-0.579405,0.498609,-0.437304
28325,,9.660176,1.066746,-1.528863,0.022262,-0.003037,-0.002697,1.031738,-0.218506,-0.229736,-0.473664,-0.579474,0.498597,-0.437325
28326,,9.632391,1.059643,-1.498080,0.017822,0.000900,-0.006798,1.031738,-0.222900,-0.227295,-0.473610,-0.579530,0.498569,-0.437342
28327,,9.674870,1.101166,-1.488798,0.014200,0.005801,-0.007719,1.036377,-0.220703,-0.227539,-0.473574,-0.579574,0.498539,-0.437357
28328,,9.626069,1.113385,-1.510233,0.013271,0.000028,-0.006890,1.033936,-0.220703,-0.229492,-0.473507,-0.579645,0.498493,-0.437387
28329,,9.649967,1.117437,-1.507266,0.013236,0.001900,-0.007562,1.031738,-0.222900,-0.223145,-0.473464,-0.579695,0.498475,-0.437388
28330,,9.634334,1.102843,-1.562819,0.008211,0.004521,-0.004340,1.036377,-0.218506,-0.223145,-0.473417,-0.579738,0.498436,-0.437425
28331,,9.682243,1.110333,-1.556620,0.015530,0.001396,-0.007178,1.038818,-0.222900,-0.227295,-0.473366,-0.579794,0.498415,-0.437431
28332,,9.653638,1.122186,-1.541142,0.025709,0.001416,-0.005130,1.036377,-0.218506,-0.229736,-0.473266,-0.579885,0.498345,-0.437499
28333,,9.656491,1.144804,-1.591101,0.022451,-0.001984,-0.005355,1.033936,-0.220703,-0.223145,-0.473182,-0.579959,0.498322,-0.437517
28334,,9.705181,1.133342,-1.569834,0.010798,-0.000539,-0.004604,1.036377,-0.220703,-0.227539,-0.473127,-0.580010,0.498301,-0.437533
28335,,9.658103,1.107521,-1.560206,0.009032,0.005482,-0.001159,1.033936,-0.220703,-0.218994,-0.473091,-0.580026,0.498303,-0.437549
28336,,9.646053,1.115520,-1.472839,0.010434,0.007758,-0.005303,1.031738,-0.220703,-0.227539,-0.473052,-0.580067,0.498251,-0.437596
28337,,9.645245,1.134459,-1.488074,0.010361,0.001081,-0.000617,1.036377,-0.220703,-0.227539,-0.473001,-0.580094,0.498261,-0.437604
28338,,9.622082,1.112183,-1.475750,0.006283,-0.003282,-0.004023,1.031738,-0.218506,-0.225342,-0.472946,-0.580142,0.498254,-0.437607
28339,,9.631231,1.082235,-1.512984,0.004917,0.002990,-0.005239,1.031738,-0.220703,-0.227539,-0.472925,-0.580164,0.498258,-0.437596
28340,,9.653484,1.124022,-1.540769,-0.005262,0.002970,-0.007288,1.031738,-0.220703,-0.225342,-0.472933,-0.580173,0.498261,-0.437573
28341,,9.634898,1.087226,-1.546746,-0.015513,-0.003727,-0.004651,1.033936,-0.218506,-0.233887,-0.472953,-0.580160,0.498327,-0.437493
28342,,9.643143,1.076476,-1.599668,-0.010742,-0.003670,-0.006550,1.038818,-0.222900,-0.229492,-0.472960,-0.580167,0.498361,-0.437437
28343,,9.724958,1.038585,-1.612646,0.002806,-0.005867,-0.002256,1.041016,-0.220459,-0.220947,-0.472916,-0.580196,0.498399,-0.437402
28344,,9.658552,1.092286,-1.544593,0.013020,0.002703,-0.005567,1.027100,-0.218750,-0.227539,-0.472851,-0.580262,0.498344,-0.437448
28345,,9.674147,1.107660,-1.488676,0.019831,0.004941,-0.005762,1.031738,-0.220703,-0.227539,-0.472793,-0.580316,0.498309,-0.437479
28346,,9.675026,1.089008,-1.472821,0.010288,0.004825,-0.001964,1.029297,-0.218506,-0.229736,-0.472749,-0.580344,0.498290,-0.437512
28347,,9.691553,1.085382,-1.400893,0.005407,0.010382,-0.002085,1.036377,-0.222900,-0.229492,-0.472738,-0.580343,0.498285,-0.437531
28348,,9.623556,1.078505,-1.443114,0.002075,0.010727,-0.003657,1.033936,-0.220703,-0.229492,-0.472731,-0.580348,0.498258,-0.437563
28349,,9.623629,1.078688,-1.442486,0.008031,0.003454,-0.001673,1.038818,-0.225098,-0.227295,-0.472694,-0.580367,0.498264,-0.437569
28350,,9.616402,1.052181,-1.551012,-0.000745,-0.004710,-0.001834,1.033936,-0.220703,-0.231689,-0.472639,-0.580410,0.498267,-0.437569
28351,,9.696499,1.051515,-1.595542,0.007726,-0.013296,-0.001458,1.038574,-0.216309,-0.223389,-0.472561,-0.580465,0.498314,-0.437527
28352,,9.666098,1.100865,-1.611783,0.010764,0.001328,-0.005275,1.033936,-0.218506,-0.229736,-0.472520,-0.580505,0.498295,-0.437540
28353,,9.670679,1.086150,-1.630233,0.003880,0.002832,-0.006427,1.038574,-0.220703,-0.223145,-0.472504,-0.580528,0.498298,-0.437523
28354,,9.670690,1.086567,-1.629890,0.010472,0.005882,-0.004630,1.031738,-0.220703,-0.227539,-0.472466,-0.580564,0.498263,-0.437557
28355,,9.678747,1.094599,-1.505773,0.022203,0.000691,-0.004027,1.040771,-0.218262,-0.227539,-0.472387,-0.580628,0.498238,-0.437585
28356,,9.674055,1.109901,-1.487602,0.012134,-0.004945,-0.004056,1.029297,-0.218506,-0.227539,-0.472317,-0.580688,0.498228,-0.437592
28357,,9.671921,1.068901,-1.422707,0.006030,-0.000602,-0.002702,1.033936,-0.220703,-0.227539,-0.472279,-0.580714,0.498245,-0.437579
28358,,9.667274,1.084149,-1.404303,0.009363,-0.000948,-0.001129,1.031738,-0.218506,-0.229736,-0.472222,-0.580749,0.498244,-0.437594
28359,,9.632345,1.050295,-1.481592,0.012804,0.003506,-0.003572,1.038574,-0.218506,-0.225342,-0.472176,-0.580785,0.498235,-0.437608
28360,,9.625163,1.121746,-1.509818,0.014991,-0.001796,0.000829,1.031738,-0.222900,-0.229492,-0.472102,-0.580826,0.498233,-0.437635
28361,,9.638139,1.094918,-1.581242,0.008289,0.000766,-0.002991,1.036377,-0.218506,-0.229736,-0.472061,-0.580855,0.498242,-0.437631
28362,,9.618809,1.076512,-1.602507,-0.000966,0.006515,-0.005879,1.033936,-0.220703,-0.223145,-0.472059,-0.580866,0.498226,-0.437637
28363,,9.618012,1.095804,-1.617391,0.002330,0.008039,-0.004981,1.033936,-0.216309,-0.227539,-0.472057,-0.580871,0.498224,-0.437635
28364,,9.642842,1.081212,-1.598288,0.006360,0.003382,-0.008709,1.031494,-0.216309,-0.231934,-0.472042,-0.580904,0.498201,-0.437633
28365,,9.676850,1.134603,-1.536336,0.003882,0.002826,-0.006427,1.038818,-0.225098,-0.229492,-0.472026,-0.580926,0.498204,-0.437616
28366,,9.659178,1.078924,-1.526620,0.001844,0.000643,-0.008129,1.033936,-0.220703,-0.225342,-0.472006,-0.580964,0.498189,-0.437607
28367,,9.684804,1.045532,-1.492334,0.007215,0.002480,-0.004853,1.033936,-0.218506,-0.227539,-0.471976,-0.580991,0.498190,-0.437601
28368,,9.680193,1.060878,-1.473558,0.012586,0.004318,-0.001578,1.036377,-0.220703,-0.231689,-0.471923,-0.581025,0.498165,-0.437641
28369,,9.654541,1.094760,-1.507666,0.008107,-0.000292,-0.000323,1.036377,-0.220703,-0.231689,-0.471874,-0.581050,0.498184,-0.437640
28370,,9.639869,1.060824,-1.547595,0.005700,0.005821,-0.002733,1.034180,-0.222900,-0.229492,-0.471843,-0.581071,0.498164,-0.437668
28371,,9.667692,1.068029,-1.578103,0.008776,0.008160,0.000158,1.033936,-0.216309,-0.227539,-0.471812,-0.581077,0.498163,-0.437694
28372,,9.672398,1.052809,-1.596214,0.009291,0.002791,-0.002475,1.033936,-0.216309,-0.227539,-0.471769,-0.581107,0.498149,-0.437717
28373,,9.691734,1.071777,-1.574452,0.002442,0.002425,-0.002956,1.036377,-0.218506,-0.233887,-0.471749,-0.581119,0.498167,-0.437703
28374,,9.639139,1.080032,-1.562087,-0.001780,-0.004867,-0.003018,1.033936,-0.220703,-0.227539,-0.471733,-0.581127,0.498210,-0.437660
28375,,9.659183,1.080380,-1.525560,-0.002743,-0.008764,-0.002856,1.033936,-0.218506,-0.229736,-0.471700,-0.581151,0.498266,-0.437601
28376,,9.639735,1.061670,-1.547848,0.001370,-0.006269,0.001222,1.031494,-0.216309,-0.231934,-0.471649,-0.581172,0.498302,-0.437586
28377,,9.659042,1.080292,-1.526516,0.007850,0.002392,0.000994,1.031738,-0.218506,-0.231689,-0.471605,-0.581187,0.498319,-0.437595
28378,,9.605677,1.106869,-1.529491,0.012624,0.002445,-0.000902,1.027100,-0.220947,-0.227539,-0.471563,-0.581205,0.498324,-0.437610
28379,,9.637218,1.117648,-1.594460,0.011512,0.006028,-0.003441,1.036377,-0.220703,-0.227539,-0.471526,-0.581231,0.498312,-0.437628
28380,,9.614188,1.095567,-1.581292,0.002330,0.008034,-0.004983,1.036377,-0.220703,-0.229492,-0.471517,-0.581244,0.498288,-0.437649
28381,,9.662153,1.103368,-1.574491,0.000255,0.007721,-0.007360,1.036377,-0.220703,-0.227539,-0.471526,-0.581250,0.498285,-0.437635
28382,,9.658425,1.100539,-1.539524,0.000218,0.009590,-0.008035,1.036377,-0.218506,-0.227539,-0.471532,-0.581264,0.498250,-0.437649
28383,,9.684115,1.067243,-1.504755,-0.003149,0.001400,-0.004241,1.031738,-0.222900,-0.223145,-0.471529,-0.581268,0.498278,-0.437615
28384,,9.670235,1.014963,-1.529377,-0.005112,-0.004523,-0.004592,1.027344,-0.225342,-0.227295,-0.471507,-0.581292,0.498297,-0.437585
28385,,9.694080,1.019013,-1.526746,-0.007591,-0.005078,-0.002311,1.038574,-0.220703,-0.233887,-0.471496,-0.581295,0.498356,-0.437526
28386,,9.646068,1.012093,-1.533259,0.004033,-0.004658,-0.003725,1.034180,-0.222900,-0.229492,-0.471435,-0.581349,0.498348,-0.437529
28387,,9.663576,1.068633,-1.543219,0.008329,-0.001106,-0.002313,1.036133,-0.216309,-0.227539,-0.471388,-0.581381,0.498363,-0.437521
28388,,9.634927,1.080493,-1.527857,0.007475,-0.000208,-0.006168,1.034180,-0.227295,-0.227295,-0.471351,-0.581422,0.498348,-0.437523
28389,,9.634869,1.081067,-1.527816,0.008658,0.002873,-0.008321,1.033936,-0.220703,-0.225342,-0.471325,-0.581461,0.498335,-0.437513
28390,,9.637740,1.103973,-1.577378,0.006179,0.002319,-0.006040,1.033936,-0.220703,-0.231689,-0.471273,-0.581519,0.498287,-0.437547
28391,,9.686545,1.093000,-1.555140,-0.000004,0.010403,-0.006044,1.038574,-0.220703,-0.227539,-0.471286,-0.581515,0.498282,-0.437544
28392,,9.653432,1.120330,-1.519852,-0.006113,0.014747,-0.004698,1.031738,-0.218506,-0.227539,-0.471317,-0.581495,0.498258,-0.437565
28393,,9.686798,1.094132,-1.552766,0.001293,0.007875,-0.006171,1.033936,-0.216309,-0.231934,-0.471320,-0.581500,0.498256,-0.437557
28394,,9.659121,1.087288,-1.521036,0.019584,0.007607,-0.004432,1.031738,-0.220703,-0.227539,-0.471277,-0.581534,0.498220,-0.437599
28395,,9.663803,1.072010,-1.539452,0.009183,-0.002003,0.001545,1.031494,-0.214111,-0.227539,-0.471217,-0.581560,0.498246,-0.437600
28396,,9.641563,1.030614,-1.511590,0.004629,-0.002871,0.001448,1.031738,-0.222900,-0.227295,-0.471178,-0.581567,0.498284,-0.437589
28397,,9.645349,1.034160,-1.545743,0.001184,0.003080,-0.002154,1.036377,-0.220703,-0.229492,-0.471162,-0.581572,0.498305,-0.437576
28398,,9.605085,1.034242,-1.619587,0.009180,0.008396,-0.004500,1.029297,-0.218506,-0.229736,-0.471126,-0.581606,0.498257,-0.437623
28399,,9.623548,1.072160,-1.613197,0.016549,0.003392,-0.006646,1.033936,-0.220703,-0.227539,-0.471075,-0.581658,0.498231,-0.437639
28400,,9.666801,1.095202,-1.588134,0.003774,0.008423,-0.008453,1.034180,-0.225098,-0.231689,-0.471078,-0.581675,0.498202,-0.437648
28401,,9.643686,1.073462,-1.575320,0.006479,-0.002239,-0.006677,1.036377,-0.218506,-0.231689,-0.471042,-0.581715,0.498211,-0.437622
28402,,9.634236,1.104327,-1.538733,0.020440,-0.004192,-0.007023,1.038574,-0.218506,-0.225342,-0.470949,-0.581809,0.498163,-0.437652
28403,,9.677377,1.127103,-1.514523,0.015367,0.000310,-0.004491,1.038818,-0.222900,-0.227295,-0.470889,-0.581859,0.498153,-0.437661
28404,,9.643433,1.074309,-1.576288,0.016404,0.000466,-0.003302,1.033936,-0.220703,-0.229492,-0.470813,-0.581922,0.498113,-0.437704
28405,,9.661845,1.111960,-1.570331,0.023181,0.004568,-0.004169,1.036377,-0.222900,-0.229492,-0.470741,-0.581981,0.498076,-0.437746
28406,,9.658063,1.108574,-1.536021,0.008257,0.002626,-0.003660,1.036377,-0.218506,-0.225342,-0.470692,-0.582023,0.498047,-0.437775
28407,,9.634141,1.105240,-1.538673,-0.003447,0.005949,-0.003606,1.031738,-0.218506,-0.227539,-0.470699,-0.582015,0.498068,-0.437755
28408,,9.644394,1.056791,-1.559283,-0.007670,0.009053,-0.009715,1.031494,-0.216309,-0.236084,-0.470744,-0.582002,0.498062,-0.437731
28409,,9.639736,1.072963,-1.540035,-0.005298,0.004815,-0.007974,1.033936,-0.218506,-0.227539,-0.470764,-0.582003,0.498076,-0.437693
28410,,9.645260,1.039737,-1.542559,-0.009999,0.001027,-0.004729,1.033936,-0.220703,-0.227539,-0.470793,-0.581980,0.498122,-0.437639
28411,,9.672938,1.047469,-1.573707,0.002964,-0.002951,-0.005584,1.029297,-0.218506,-0.229736,-0.470764,-0.582011,0.498144,-0.437604
28412,,9.700641,1.054941,-1.604871,0.009294,0.002786,-0.002470,1.036377,-0.222900,-0.229492,-0.470723,-0.582038,0.498132,-0.437625
28413,,9.672914,1.047916,-1.573555,0.010516,0.003995,-0.003948,1.036377,-0.225098,-0.227295,-0.470685,-0.582068,0.498125,-0.437634
28414,,9.624192,1.059382,-1.594974,0.017145,0.005178,-0.001472,1.036621,-0.227295,-0.231689,-0.470598,-0.582135,0.498059,-0.437715
28415,,9.649097,1.044168,-1.575872,0.021663,0.007911,-0.002049,1.033936,-0.220703,-0.229492,-0.470533,-0.582178,0.498024,-0.437767
28416,,9.615813,1.070988,-1.541766,0.013113,-0.001063,-0.004196,1.033936,-0.216309,-0.231934,-0.470450,-0.582253,0.497977,-0.437809
28417,,9.638813,1.093768,-1.554525,-0.002887,-0.001293,-0.005557,1.029541,-0.222900,-0.229492,-0.470442,-0.582267,0.498008,-0.437766
28418,,9.682857,1.098177,-1.514133,-0.005483,0.003761,-0.005309,1.036377,-0.220703,-0.229492,-0.470454,-0.582262,0.498022,-0.437743
28419,,9.635854,1.072786,-1.504040,-0.007817,0.006129,-0.006373,1.036377,-0.225098,-0.229492,-0.470481,-0.582250,0.498043,-0.437706
28420,,9.644308,1.061694,-1.556479,-0.002849,-0.003162,-0.004880,1.031738,-0.220703,-0.227539,-0.470445,-0.582289,0.498039,-0.437696
28421,,9.671969,1.069441,-1.587737,0.000632,-0.000585,-0.006647,1.031738,-0.220703,-0.229492,-0.470431,-0.582312,0.498057,-0.437661
28422,,9.676639,1.054663,-1.606039,0.001146,0.004945,-0.002832,1.031494,-0.216309,-0.238281,-0.470414,-0.582323,0.498049,-0.437674
28423,,9.652741,1.051201,-1.608678,0.009257,0.004653,-0.003146,1.036133,-0.216309,-0.229736,-0.470380,-0.582346,0.498046,-0.437683
28424,,9.629699,1.029039,-1.595799,0.015296,0.004042,-0.005837,1.033936,-0.220703,-0.238281,-0.470353,-0.582371,0.498036,-0.437690
28425,,9.648926,1.048231,-1.574220,0.010817,-0.000562,-0.004582,1.036377,-0.220703,-0.231689,-0.470304,-0.582413,0.498037,-0.437685
28426,,9.621127,1.041553,-1.543082,-0.002962,0.002440,-0.006911,1.031738,-0.218506,-0.231689,-0.470303,-0.582428,0.498037,-0.437666
28427,,9.630088,1.110301,-1.499868,-0.013556,0.002183,-0.004319,1.038818,-0.222900,-0.231689,-0.470332,-0.582406,0.498086,-0.437609
28428,,9.639457,1.080673,-1.536385,-0.017963,0.004231,-0.007761,1.031982,-0.227295,-0.231445,-0.470379,-0.582386,0.498108,-0.437560
28429,,9.672778,1.054856,-1.569754,-0.011111,0.004598,-0.007273,1.031738,-0.220703,-0.229492,-0.470413,-0.582372,0.498137,-0.437509
28430,,9.675722,1.077937,-1.618886,-0.004298,0.006834,-0.007462,1.031738,-0.220703,-0.236084,-0.470407,-0.582396,0.498101,-0.437524
28431,,9.680412,1.063323,-1.637047,0.006224,0.000442,-0.005358,1.034180,-0.222900,-0.236084,-0.470376,-0.582427,0.498108,-0.437508
28432,,9.656378,1.059858,-1.640511,0.022563,-0.005742,-0.003954,1.033936,-0.216309,-0.231934,-0.470267,-0.582519,0.498073,-0.437543
28433,,9.623865,1.067816,-1.591318,0.024259,0.002863,-0.002293,1.036133,-0.216309,-0.229736,-0.470183,-0.582579,0.498044,-0.437586
28434,,9.619978,1.064344,-1.557610,0.022789,-0.006565,-0.005941,1.036377,-0.220703,-0.233887,-0.470106,-0.582649,0.498036,-0.437586
28435,,9.614318,1.098549,-1.555029,0.008221,0.004491,-0.004334,1.036377,-0.222900,-0.229492,-0.470077,-0.582673,0.498032,-0.437589
28436,,9.634447,1.099255,-1.517460,-0.006519,0.003596,-0.006499,1.031738,-0.218506,-0.233887,-0.470079,-0.582686,0.498024,-0.437579
28437,,9.639128,1.084789,-1.535552,-0.011074,0.002728,-0.006599,1.033936,-0.220703,-0.227539,-0.470107,-0.582674,0.498059,-0.437524
28438,,9.675330,1.080917,-1.619244,-0.010920,-0.004742,-0.003890,1.031738,-0.222900,-0.231689,-0.470109,-0.582674,0.498106,-0.437469
28439,,9.672291,1.059044,-1.569930,-0.006512,-0.006790,-0.000446,1.036377,-0.218506,-0.229736,-0.470086,-0.582679,0.498172,-0.437412
28440,,9.691479,1.078017,-1.548643,0.008074,0.001577,-0.000990,1.031738,-0.218506,-0.231689,-0.470035,-0.582710,0.498160,-0.437438
28441,,9.667547,1.074239,-1.551708,0.022002,0.001496,-0.002003,1.031738,-0.218506,-0.229736,-0.469953,-0.582768,0.498140,-0.437473
28442,,9.618865,1.085367,-1.573054,0.023658,0.011968,-0.001022,1.031982,-0.225098,-0.231689,-0.469897,-0.582798,0.498088,-0.437552
28443,,9.633512,1.119367,-1.532388,0.014850,0.005677,-0.001855,1.036377,-0.218506,-0.231689,-0.469847,-0.582829,0.498074,-0.437581
28444,,9.662215,1.108312,-1.547119,0.000404,0.010610,-0.010711,1.034180,-0.222900,-0.233887,-0.469857,-0.582851,0.498025,-0.437596
28445,,9.667856,1.075368,-1.548998,-0.005374,0.008534,-0.009333,1.036377,-0.220703,-0.229492,-0.469889,-0.582847,0.498026,-0.437566
28446,,9.657178,1.045689,-1.622450,-0.002813,0.005348,-0.010256,1.031738,-0.218506,-0.233887,-0.469893,-0.582874,0.497996,-0.437560
28447,,9.677202,1.046520,-1.585387,-0.001693,-0.008607,-0.001658,1.031738,-0.218506,-0.229736,-0.469855,-0.582896,0.498052,-0.437507
28448,,9.656022,1.065360,-1.639037,-0.000246,-0.008219,-0.005124,1.029297,-0.218506,-0.229736,-0.469827,-0.582924,0.498089,-0.437457
28449,,9.608021,1.057968,-1.645884,0.005747,-0.006439,0.003999,1.029541,-0.220703,-0.229492,-0.469760,-0.582946,0.498141,-0.437442
28450,,9.628065,1.057737,-1.609437,0.022159,-0.005974,0.000710,1.036377,-0.225098,-0.233887,-0.469654,-0.583013,0.498133,-0.437476
28451,,9.593809,1.102889,-1.591384,0.029778,0.007620,-0.002355,1.041016,-0.222656,-0.227295,-0.469566,-0.583076,0.498080,-0.437547
28452,,9.584440,1.133360,-1.554075,0.027932,0.006475,-0.006721,1.031738,-0.218506,-0.231689,-0.469462,-0.583178,0.497970,-0.437646
28453,,9.592981,1.121890,-1.606431,0.014265,0.003872,-0.007021,1.031738,-0.220703,-0.233887,-0.469420,-0.583225,0.497947,-0.437657
28454,,9.659123,1.167715,-1.594248,-0.009590,0.001243,-0.009392,1.031738,-0.220703,-0.231689,-0.469448,-0.583225,0.497965,-0.437605
28455,,9.651116,1.081721,-1.620937,-0.020676,0.004495,-0.003505,1.038818,-0.222900,-0.231689,-0.469502,-0.583179,0.498026,-0.437539
28456,,9.724687,1.056188,-1.580159,-0.014292,-0.002539,-0.006147,1.033936,-0.220703,-0.233887,-0.469511,-0.583185,0.498052,-0.437491
28457,,9.706239,1.019224,-1.586385,-0.000283,-0.006355,-0.005800,1.036377,-0.220703,-0.231689,-0.469483,-0.583217,0.498087,-0.437438
28458,,9.695794,1.068933,-1.565369,-0.005406,0.000017,-0.003956,1.036133,-0.214111,-0.234131,-0.469475,-0.583226,0.498102,-0.437418
28459,,9.621061,1.035716,-1.524718,0.007889,0.000530,0.001679,1.033936,-0.220703,-0.233887,-0.469424,-0.583244,0.498125,-0.437423
28460,,9.639387,1.073114,-1.518941,0.014967,0.000078,0.000180,1.031738,-0.218506,-0.231689,-0.469368,-0.583269,0.498132,-0.437441
28461,,9.645040,1.039145,-1.521581,0.015037,0.006722,-0.004521,1.031738,-0.222900,-0.235840,-0.469325,-0.583305,0.498107,-0.437467
28462,,9.613744,1.107069,-1.552533,0.006883,0.008879,-0.004890,1.033936,-0.218506,-0.236084,-0.469308,-0.583323,0.498077,-0.437497
28463,,9.646306,1.099592,-1.601202,-0.002081,0.010055,-0.008436,1.036377,-0.220703,-0.229492,-0.469332,-0.583321,0.498070,-0.437482
28464,,9.631025,1.084766,-1.655837,-0.001270,0.011036,-0.005258,1.034180,-0.225098,-0.235840,-0.469350,-0.583312,0.498054,-0.437493
28465,,9.659860,1.073783,-1.669915,0.005467,0.017002,-0.006801,1.036377,-0.222900,-0.229492,-0.469365,-0.583308,0.498020,-0.437520
28466,,9.675389,1.089732,-1.612965,0.007881,0.010904,-0.004376,1.031738,-0.222900,-0.233887,-0.469327,-0.583346,0.497955,-0.437585
28467,,9.647741,1.082797,-1.580979,0.006659,0.009698,-0.002899,1.033936,-0.216309,-0.238281,-0.469312,-0.583351,0.497946,-0.437603
28468,,9.620939,1.057210,-1.533577,0.000110,0.004776,-0.004023,1.036377,-0.222900,-0.233887,-0.469310,-0.583353,0.497952,-0.437598
28469,,9.633336,1.049088,-1.620369,0.007383,-0.005005,-0.002128,1.031738,-0.222900,-0.233887,-0.469255,-0.583390,0.497978,-0.437577
28470,,9.658047,1.034296,-1.602225,0.007610,-0.005826,-0.004116,1.033936,-0.218506,-0.231689,-0.469183,-0.583455,0.497965,-0.437583
28471,,9.653230,1.049851,-1.584022,0.013046,0.002665,-0.005538,1.033936,-0.218506,-0.231689,-0.469138,-0.583497,0.497951,-0.437590
28472,,9.624566,1.061647,-1.568380,0.012781,0.005351,-0.004228,1.029541,-0.220703,-0.229492,-0.469105,-0.583523,0.497930,-0.437615
28473,,9.646774,1.102983,-1.596044,0.019519,0.011315,-0.005770,1.034180,-0.222900,-0.229492,-0.469064,-0.583563,0.497880,-0.437663
28474,,9.617278,1.133432,-1.595677,0.024380,0.007627,-0.006297,1.033936,-0.220703,-0.238281,-0.468987,-0.583636,0.497798,-0.437740
28475,,9.626812,1.103100,-1.632240,0.016343,0.004187,-0.004634,1.033936,-0.220703,-0.229492,-0.468935,-0.583681,0.497776,-0.437762
28476,,9.674701,1.110759,-1.625796,0.012783,0.005346,-0.004226,1.036377,-0.218506,-0.236084,-0.468890,-0.583719,0.497742,-0.437798
28477,,9.631641,1.088089,-1.650063,0.012596,0.004303,-0.001559,1.031738,-0.220703,-0.231689,-0.468842,-0.583747,0.497737,-0.437819
28478,,9.651766,1.088482,-1.612514,0.003443,0.004434,-0.002445,1.031738,-0.222900,-0.233887,-0.468825,-0.583753,0.497739,-0.437826
28479,,9.667166,1.104367,-1.556162,-0.011833,0.008913,-0.002007,1.036377,-0.220703,-0.225342,-0.468861,-0.583715,0.497775,-0.437798
28480,,9.649918,1.048351,-1.545267,-0.013095,0.009573,-0.001209,1.033936,-0.220703,-0.231689,-0.468888,-0.583684,0.497784,-0.437799
28481,,9.644375,1.082963,-1.541340,-0.010232,0.012199,-0.008818,1.036377,-0.222900,-0.229492,-0.468942,-0.583659,0.497789,-0.437769
28482,,9.653957,1.053232,-1.577328,-0.003222,0.005108,-0.005606,1.029541,-0.225098,-0.235840,-0.468938,-0.583673,0.497774,-0.437772
28483,,9.682668,1.042226,-1.592236,0.001373,0.004111,-0.004823,1.038574,-0.220703,-0.229492,-0.468929,-0.583683,0.497784,-0.437756
28484,,9.654957,1.035358,-1.560469,0.016997,0.012630,-0.004166,1.036377,-0.220703,-0.233887,-0.468877,-0.583729,0.497706,-0.437840
28485,,9.653300,1.072859,-1.590925,0.012480,0.009897,-0.003591,1.034180,-0.222900,-0.233887,-0.468847,-0.583749,0.497682,-0.437872
28486,,9.634290,1.054047,-1.611450,0.003062,0.012713,-0.003172,1.033936,-0.216309,-0.229736,-0.468840,-0.583753,0.497646,-0.437915
28487,,9.614372,1.054119,-1.647662,0.003556,0.009203,-0.006468,1.034180,-0.222900,-0.231689,-0.468841,-0.583761,0.497635,-0.437916
28488,,9.633620,1.073559,-1.625268,-0.003715,0.008615,-0.002311,1.038818,-0.222900,-0.238037,-0.468855,-0.583743,0.497640,-0.437920
28489,,9.654665,1.055743,-1.571308,-0.010419,0.011151,-0.006155,1.034180,-0.225098,-0.235840,-0.468901,-0.583713,0.497656,-0.437892
28490,,9.657768,1.078673,-1.619933,-0.017272,0.010780,-0.006652,1.029541,-0.220703,-0.231689,-0.468943,-0.583695,0.497645,-0.437884
28491,,9.633046,1.094362,-1.637670,-0.002262,0.008995,-0.005774,1.036377,-0.225098,-0.231689,-0.468959,-0.583688,0.497649,-0.437871
28492,,9.624412,1.106787,-1.584404,0.002600,0.005312,-0.006298,1.036377,-0.225098,-0.235840,-0.468935,-0.583722,0.497613,-0.437893
28493,,9.658835,1.061991,-1.601864,0.003786,0.008379,-0.008452,1.033936,-0.218506,-0.227539,-0.468937,-0.583737,0.497598,-0.437887
28494,,9.659795,1.043845,-1.585409,0.003368,0.008160,-0.003798,1.031738,-0.220703,-0.229492,-0.468918,-0.583755,0.497567,-0.437920
28495,,9.659976,1.044124,-1.584119,-0.006624,0.018208,-0.001442,1.027100,-0.218750,-0.233887,-0.468960,-0.583707,0.497571,-0.437933
28496,,9.637181,1.022082,-1.569833,-0.003868,0.016064,-0.005024,1.031738,-0.222900,-0.238037,-0.468999,-0.583677,0.497555,-0.437949
28497,,9.644236,1.048015,-1.652826,0.008231,0.004478,-0.004320,1.029297,-0.218506,-0.225342,-0.468970,-0.583701,0.497551,-0.437953
28498,,9.634642,1.078860,-1.615667,-0.007926,0.001330,-0.002370,1.029541,-0.225098,-0.231689,-0.468972,-0.583693,0.497578,-0.437930
28499,,9.655514,1.060892,-1.562595,-0.018264,-0.001612,-0.001110,1.036133,-0.216309,-0.229736,-0.468998,-0.583661,0.497656,-0.437857
28500,,9.630690,1.076541,-1.581013,-0.021519,0.005352,-0.007394,1.029541,-0.222900,-0.231689,-0.469060,-0.583627,0.497685,-0.437803
28501,,9.636390,1.043700,-1.582999,-0.014474,0.006764,-0.009558,1.036377,-0.222900,-0.231689,-0.469114,-0.583606,0.497710,-0.437745
28502,,9.654632,1.082470,-1.576267,-0.005362,0.008503,-0.009342,1.038574,-0.218506,-0.231689,-0.469126,-0.583623,0.497674,-0.437750
28503,,9.633826,1.101779,-1.628076,0.002410,0.014628,-0.009683,1.031738,-0.222900,-0.231689,-0.469151,-0.583625,0.497643,-0.437756
28504,,9.644480,1.053376,-1.647987,-0.005859,0.012008,-0.006044,1.031738,-0.220703,-0.236084,-0.469178,-0.583613,0.497623,-0.437766
28505,,9.643690,1.072648,-1.662718,-0.005743,0.006418,-0.004010,1.033936,-0.216309,-0.231934,-0.469194,-0.583599,0.497645,-0.437742
28506,,9.664628,1.054510,-1.609246,-0.008384,0.002969,0.001605,1.036133,-0.216309,-0.236084,-0.469204,-0.583566,0.497695,-0.437718
28507,,9.655947,1.066331,-1.556207,0.000919,0.005751,-0.000842,1.034180,-0.225098,-0.229492,-0.469192,-0.583562,0.497714,-0.437716
28508,,9.636915,1.047418,-1.577342,-0.000077,0.003726,-0.001355,1.033936,-0.218506,-0.233887,-0.469172,-0.583569,0.497715,-0.437726
28509,,9.608204,1.059182,-1.561662,0.001378,0.004108,-0.004818,1.036133,-0.216309,-0.231934,-0.469163,-0.583580,0.497725,-0.437711
28510,,9.647225,1.079122,-1.502704,-0.002640,-0.002132,-0.007548,1.031738,-0.222900,-0.233887,-0.469169,-0.583588,0.497753,-0.437660
28511,,9.646248,1.098733,-1.518285,-0.013130,0.002372,-0.009002,1.033936,-0.220703,-0.227539,-0.469208,-0.583579,0.497787,-0.437594
28512,,9.627180,1.080816,-1.538970,-0.024156,0.012243,-0.007833,1.027100,-0.223145,-0.233887,-0.469286,-0.583534,0.497793,-0.437562
28513,,9.660920,1.055210,-1.570966,-0.019945,0.019521,-0.007766,1.036621,-0.227295,-0.233643,-0.469384,-0.583468,0.497805,-0.437531
28514,,9.688081,1.082060,-1.615857,-0.005895,0.013865,-0.006716,1.031494,-0.216309,-0.227539,-0.469389,-0.583481,0.497748,-0.437573
28515,,9.665198,1.060200,-1.602067,0.006814,0.012594,-0.006221,1.029297,-0.218506,-0.231689,-0.469389,-0.583489,0.497723,-0.437593
28516,,9.674121,1.048880,-1.653610,0.012672,0.010945,-0.006231,1.027100,-0.216553,-0.227539,-0.469379,-0.583502,0.497689,-0.437624
28517,,9.660579,1.076207,-1.581731,0.017266,0.009954,-0.005442,1.034180,-0.222900,-0.231689,-0.469340,-0.583538,0.497649,-0.437663
28518,,9.656673,1.072908,-1.547156,0.015122,0.002999,-0.003128,1.033936,-0.218506,-0.231689,-0.469282,-0.583582,0.497620,-0.437700
28519,,9.656654,1.073126,-1.547120,0.002721,-0.000276,-0.004258,1.031738,-0.220703,-0.233887,-0.469257,-0.583603,0.497639,-0.437676
28520,,9.653549,1.051573,-1.497083,-0.014620,0.003845,-0.006221,1.034180,-0.222900,-0.233887,-0.469297,-0.583582,0.497666,-0.437632
28521,,9.608863,1.066941,-1.552299,-0.008152,0.012492,-0.006436,1.029297,-0.218506,-0.233887,-0.469340,-0.583555,0.497673,-0.437613
28522,,9.642653,1.040811,-1.584608,-0.006356,0.015501,-0.002742,1.033936,-0.220703,-0.238281,-0.469370,-0.583525,0.497659,-0.437638
28523,,9.613207,1.071313,-1.583515,-0.002795,0.014348,-0.003144,1.033936,-0.218506,-0.238281,-0.469395,-0.583498,0.497659,-0.437645
28524,,9.586858,1.124002,-1.632207,-0.002833,0.016208,-0.003821,1.029297,-0.218506,-0.233887,-0.469427,-0.583470,0.497643,-0.437668
28525,,9.615799,1.112904,-1.646252,-0.003713,0.008598,-0.002305,1.038574,-0.220703,-0.233887,-0.469438,-0.583452,0.497661,-0.437659
28526,,9.639710,1.117078,-1.642799,0.002992,-0.002958,-0.005569,1.033936,-0.214111,-0.229736,-0.469407,-0.583485,0.497667,-0.437640
28527,,9.668364,1.105933,-1.658572,0.014475,-0.005429,-0.003595,1.031738,-0.218506,-0.231689,-0.469334,-0.583544,0.497675,-0.437633
28528,,9.661153,1.080449,-1.575323,0.017998,-0.004721,-0.004673,1.033936,-0.216309,-0.238281,-0.469273,-0.583594,0.497677,-0.437628
28529,,9.629133,1.070015,-1.510997,0.015973,-0.006911,-0.006378,1.029541,-0.225098,-0.233643,-0.469197,-0.583667,0.497677,-0.437613
28530,,9.676774,1.078128,-1.505401,0.004527,-0.006302,-0.007675,1.031738,-0.220703,-0.231689,-0.469153,-0.583721,0.497678,-0.437587
28531,,9.681517,1.063738,-1.524029,-0.001484,0.002790,-0.010376,1.034180,-0.222900,-0.236084,-0.469161,-0.583741,0.497681,-0.437548
28532,,9.682384,1.045893,-1.507905,-0.005509,0.005586,-0.006000,1.031494,-0.216309,-0.238281,-0.469163,-0.583751,0.497668,-0.437546
28533,,9.686356,1.050035,-1.541597,-0.002942,0.002408,-0.006915,1.031738,-0.220703,-0.231689,-0.469168,-0.583760,0.497686,-0.437510
28534,,9.715095,1.039241,-1.556674,0.001652,0.001420,-0.006125,1.036377,-0.222900,-0.236084,-0.469160,-0.583773,0.497694,-0.437491
28535,,9.715109,1.039712,-1.556273,0.004633,0.007496,-0.004583,1.034180,-0.222900,-0.242432,-0.469150,-0.583783,0.497690,-0.437494
