// Start Time: Unknown
// Update Rate: 100.0Hz
// Filter Profile: human (46.1)
// Option Flags: AHS Disabled ICC Disabled 
// Firmware Version: 4.3.4
PacketCounter,SampleTimeFine,Acc_X,Acc_Y,Acc_Z,Gyr_X,Gyr_Y,Gyr_Z,Mag_X,Mag_Y,Mag_Z,Quat_q0,Quat_q1,Quat_q2,Quat_q3
27626,,9.742626,-1.040498,-1.103610,0.012095,0.031404,-0.003602,1.015625,-0.422119,-0.017334,-0.299288,-0.628597,0.404265,-0.593179
27627,,9.738562,-1.019879,-1.113050,0.007755,0.026265,0.000869,1.008789,-0.422363,-0.015137,-0.299285,-0.628579,0.404212,-0.593236
27628,,9.716623,-0.997752,-1.066556,-0.003013,0.009369,-0.001767,1.008789,-0.426758,-0.019531,-0.299300,-0.628596,0.404235,-0.593195
27629,,9.706022,-1.030132,-1.068027,-0.009785,0.012631,-0.003798,1.010986,-0.422363,-0.013184,-0.299341,-0.628599,0.404246,-0.593164
27630,,9.739116,-1.019078,-1.108924,0.011272,0.015145,-0.005433,1.008545,-0.420166,-0.010986,-0.299333,-0.628628,0.404207,-0.593164
27631,,9.752722,-0.996423,-0.978323,0.013934,0.017614,-0.004817,1.015625,-0.422119,-0.015381,-0.299309,-0.628656,0.404129,-0.593199
27632,,9.745109,-0.958263,-0.958378,0.015502,0.031312,-0.007285,1.013428,-0.422119,-0.017334,-0.299327,-0.628647,0.404047,-0.593256
27633,,9.738260,-1.007628,-0.987494,0.020710,0.029226,-0.006221,1.013428,-0.422119,-0.013184,-0.299317,-0.628650,0.403936,-0.593333
27634,,9.776005,-1.017104,-1.013720,0.015312,0.041554,-0.008003,1.006348,-0.420166,-0.017578,-0.299358,-0.628611,0.403837,-0.593421
27635,,9.757042,-1.007990,-1.036515,0.018486,0.045455,-0.009232,1.015869,-0.426758,-0.010742,-0.299398,-0.628567,0.403702,-0.593539
27636,,9.751287,-1.060628,-1.021656,0.016533,0.052235,-0.008196,1.015381,-0.417725,-0.015381,-0.299457,-0.628499,0.403583,-0.593663
27637,,9.748261,-1.043036,-0.986963,0.014419,0.045746,-0.004158,1.010986,-0.424561,-0.015137,-0.299487,-0.628443,0.403464,-0.593787
27638,,9.724925,-1.013694,-1.022159,0.010350,0.042846,-0.005308,1.015625,-0.422119,-0.017334,-0.299538,-0.628388,0.403386,-0.593873
27639,,9.705277,-1.001371,-1.086919,-0.003933,0.051943,-0.005107,1.017822,-0.417480,-0.017578,-0.299647,-0.628284,0.403319,-0.593973
27640,,9.705840,-1.000644,-1.082555,-0.015831,0.040021,-0.007673,1.015625,-0.419922,-0.015381,-0.299781,-0.628203,0.403315,-0.593994
27641,,9.677612,-1.030985,-1.024435,-0.019825,0.037910,-0.005492,1.010986,-0.422363,-0.015137,-0.299930,-0.628109,0.403330,-0.594009
27642,,9.718908,-0.973042,-0.988600,-0.016567,0.039419,-0.009609,1.017822,-0.419922,-0.021973,-0.300071,-0.628032,0.403323,-0.594023
27643,,9.669874,-0.988190,-1.041784,-0.000918,0.042585,-0.003323,1.015625,-0.422119,-0.010986,-0.300160,-0.627949,0.403281,-0.594095
27644,,9.704087,-0.980465,-1.038187,0.004179,0.030281,-0.008635,1.017822,-0.422119,-0.015381,-0.300215,-0.627928,0.403230,-0.594124
27645,,9.749988,-1.027485,-1.082174,0.006328,0.031329,-0.006172,1.013428,-0.424561,-0.010742,-0.300251,-0.627905,0.403155,-0.594181
27646,,9.751014,-1.030625,-1.036766,0.012700,0.033678,-0.002111,1.006348,-0.422363,-0.019531,-0.300266,-0.627874,0.403094,-0.594247
27647,,9.690808,-0.995045,-1.001300,0.010625,0.033425,-0.001244,1.015625,-0.422119,-0.013184,-0.300278,-0.627840,0.403023,-0.594325
27648,,9.763029,-1.001211,-0.985455,-0.001392,0.032530,-0.001214,1.008545,-0.417725,-0.017578,-0.300333,-0.627789,0.403009,-0.594361
27649,,9.748363,-1.013215,-0.997036,0.005426,0.035519,-0.002328,1.010986,-0.419922,-0.013184,-0.300383,-0.627736,0.402959,-0.594425
27650,,9.730004,-1.007747,-0.978784,-0.006144,0.035262,-0.007479,1.010986,-0.422363,-0.013184,-0.300476,-0.627683,0.402935,-0.594451
27651,,9.715382,-1.019134,-0.990683,-0.023414,0.030208,-0.005368,1.013184,-0.417725,-0.008789,-0.300606,-0.627613,0.402960,-0.594442
27652,,9.745139,-0.990637,-1.000714,-0.026864,0.020876,-0.004755,1.008789,-0.424561,-0.010742,-0.300727,-0.627566,0.403028,-0.594384
27653,,9.729888,-0.998729,-1.055584,-0.015396,0.028992,-0.003215,1.013184,-0.417725,-0.010986,-0.300814,-0.627513,0.403027,-0.594397
27654,,9.689434,-0.974571,-0.951332,-0.011393,0.031114,-0.005391,1.015381,-0.415283,-0.015381,-0.300909,-0.627460,0.403031,-0.594402
27655,,9.741816,-0.968342,-1.005150,0.000779,0.030407,-0.004967,1.015625,-0.419922,-0.013184,-0.300977,-0.627417,0.402998,-0.594435
27656,,9.731574,-1.000704,-1.003879,0.023649,0.045853,-0.005210,1.013184,-0.419922,-0.015381,-0.300992,-0.627373,0.402877,-0.594557
27657,,9.679556,-1.002439,-0.984451,0.026766,0.048975,-0.009764,1.010986,-0.424561,-0.012939,-0.301022,-0.627328,0.402717,-0.594697
27658,,9.679608,-0.998390,-1.022152,0.015673,0.038436,-0.007094,1.013184,-0.419922,-0.006592,-0.301052,-0.627297,0.402624,-0.594777
27659,,9.724944,-0.961088,-0.973679,0.008884,0.032262,-0.012217,1.010986,-0.422363,-0.008789,-0.301093,-0.627291,0.402516,-0.594836
27660,,9.725793,-0.963526,-0.928374,-0.003070,0.032153,-0.008878,1.013184,-0.417725,-0.010986,-0.301175,-0.627254,0.402483,-0.594856
27661,,9.741124,-0.950477,-0.910286,-0.008787,0.032814,-0.008131,1.010986,-0.424561,-0.012939,-0.301268,-0.627207,0.402448,-0.594882
27662,,9.745798,-0.970395,-0.894423,-0.001325,0.038819,-0.004407,1.017578,-0.415283,-0.009033,-0.301345,-0.627144,0.402413,-0.594933
27663,,9.708156,-0.956642,-0.903058,0.000357,0.044694,-0.003270,1.013184,-0.419922,-0.015381,-0.301423,-0.627063,0.402351,-0.595021
27664,,9.697554,-0.985698,-0.943569,0.007791,0.041259,-0.002592,1.008545,-0.417725,-0.006592,-0.301470,-0.627003,0.402292,-0.595101
27665,,9.712530,-0.969996,-0.966602,0.019964,0.040559,-0.002146,1.013184,-0.417725,-0.013184,-0.301479,-0.626958,0.402188,-0.595213
27666,,9.708293,-0.946075,-1.017361,0.020577,0.034130,-0.000370,1.010986,-0.422363,-0.010986,-0.301466,-0.626934,0.402108,-0.595299
27667,,9.689715,-0.941197,-0.999947,0.008317,0.019132,-0.000691,1.018066,-0.424316,-0.004395,-0.301464,-0.626933,0.402076,-0.595323
27668,,9.708709,-0.946222,-1.013250,0.005014,0.008176,0.000368,1.015381,-0.415283,-0.011230,-0.301445,-0.626961,0.402084,-0.595298
27669,,9.720109,-0.920213,-0.925261,-0.002047,0.014655,-0.002607,1.010742,-0.417725,-0.006592,-0.301462,-0.626968,0.402069,-0.595291
27670,,9.750100,-0.895626,-0.893544,-0.007492,0.020753,-0.001267,1.013184,-0.417725,-0.008789,-0.301512,-0.626944,0.402090,-0.595278
27671,,9.750622,-0.898885,-0.849125,-0.003731,0.026886,-0.000991,1.010986,-0.422363,-0.006592,-0.301561,-0.626904,0.402075,-0.595305
27672,,9.778006,-0.941322,-0.878035,0.004715,0.034968,-0.004279,1.010742,-0.415527,-0.009033,-0.301611,-0.626862,0.402029,-0.595356
27673,,9.748588,-0.965364,-0.904395,0.002910,0.040153,-0.002820,1.011230,-0.424561,-0.008545,-0.301667,-0.626799,0.401965,-0.595436
27674,,9.733819,-0.973782,-0.957961,-0.000174,0.033845,-0.004497,1.010986,-0.419922,-0.013184,-0.301731,-0.626752,0.401935,-0.595474
27675,,9.742176,-1.007855,-1.014076,0.007160,0.032807,-0.000917,1.008545,-0.417725,-0.004395,-0.301750,-0.626715,0.401875,-0.595543
27676,,9.679393,-1.046250,-0.957664,0.008322,0.019144,-0.000687,1.010742,-0.415527,-0.009033,-0.301746,-0.626717,0.401853,-0.595558
27677,,9.743036,-1.014866,-0.925605,0.008405,0.011276,0.002938,1.013184,-0.419922,-0.006592,-0.301717,-0.626733,0.401842,-0.595564
27678,,9.749752,-0.965310,-0.891820,0.001402,0.018549,0.003286,1.013428,-0.422119,-0.008789,-0.301721,-0.626719,0.401854,-0.595568
27679,,9.741229,-0.921082,-0.956843,0.017434,0.021584,0.001145,1.015625,-0.422119,-0.006592,-0.301676,-0.626729,0.401781,-0.595629
27680,,9.733148,-0.883261,-0.937816,-0.002769,0.014049,-0.004553,1.017822,-0.417725,-0.006592,-0.301708,-0.626738,0.401787,-0.595599
27681,,9.745877,-0.940976,-0.940789,-0.005760,0.023449,-0.006370,1.020020,-0.417480,-0.010986,-0.301763,-0.626723,0.401756,-0.595609
27682,,9.746359,-0.943885,-0.896021,-0.011304,0.031953,-0.002154,1.010986,-0.419922,-0.008789,-0.301851,-0.626660,0.401769,-0.595621
27683,,9.702096,-0.980079,-0.938401,-0.017449,0.028780,-0.002469,1.013428,-0.422363,-0.002197,-0.301955,-0.626596,0.401792,-0.595621
27684,,9.725360,-1.001908,-0.980080,-0.007360,0.027822,-0.001136,1.015625,-0.419922,-0.004395,-0.302018,-0.626550,0.401802,-0.595630
27685,,9.734107,-1.042765,-0.952408,0.002375,0.029293,-0.004026,1.010986,-0.422363,-0.006592,-0.302039,-0.626533,0.401731,-0.595686
27686,,9.730458,-1.028836,-0.877687,0.011787,0.028513,-0.001293,1.010742,-0.417725,-0.008789,-0.302044,-0.626514,0.401683,-0.595735
27687,,9.707557,-1.003291,-0.872894,0.007197,0.024164,-0.000625,1.015381,-0.415283,-0.009033,-0.302046,-0.626502,0.401636,-0.595779
27688,,9.749659,-1.026894,-0.971233,0.003106,0.029912,-0.002094,1.010986,-0.419922,-0.013184,-0.302084,-0.626467,0.401609,-0.595814
27689,,9.749941,-1.026721,-0.968575,0.000749,0.024210,-0.001837,1.003906,-0.417969,-0.010986,-0.302128,-0.626437,0.401597,-0.595832
27690,,9.727051,-1.001000,-0.964100,0.012193,0.022897,-0.003287,1.015381,-0.417725,-0.004639,-0.302127,-0.626439,0.401550,-0.595862
27691,,9.681026,-0.953254,-0.915964,0.011843,0.011188,-0.000702,1.010986,-0.419922,-0.008789,-0.302098,-0.626467,0.401518,-0.595868
27692,,9.723064,-0.977039,-1.015770,0.015482,0.010273,-0.000571,1.015625,-0.422119,-0.008789,-0.302053,-0.626507,0.401489,-0.595869
27693,,9.733975,-0.951190,-0.927251,0.011139,0.020035,0.000396,1.008545,-0.420166,-0.006592,-0.302030,-0.626511,0.401439,-0.595909
27694,,9.748892,-0.935709,-0.952432,0.004992,0.016857,0.000076,1.008789,-0.422363,-0.008789,-0.302029,-0.626514,0.401433,-0.595911
27695,,9.753213,-0.952819,-0.980312,0.007604,0.018549,-0.002623,1.013184,-0.415527,-0.009033,-0.302020,-0.626526,0.401385,-0.595936
27696,,9.749362,-0.942154,-0.864622,-0.002182,0.016285,-0.003077,1.008545,-0.415527,-0.006836,-0.302050,-0.626526,0.401391,-0.595917
27697,,9.743076,-0.991672,-0.895416,-0.012118,0.015632,-0.003978,1.015625,-0.424316,-0.006592,-0.302123,-0.626506,0.401423,-0.595879
27698,,9.724328,-0.986187,-0.879137,-0.019119,0.022912,-0.003650,1.017822,-0.417480,-0.008789,-0.302221,-0.626462,0.401468,-0.595846
27699,,9.722235,-1.046273,-1.023084,0.000650,0.026624,0.001041,1.010742,-0.417725,-0.013184,-0.302240,-0.626432,0.401436,-0.595889
27700,,9.722457,-1.042986,-1.062878,0.007503,0.020958,0.000267,1.010742,-0.415527,-0.009033,-0.302239,-0.626426,0.401417,-0.595908
27701,,9.737420,-1.034398,-1.003881,0.008253,0.012903,0.002503,1.015381,-0.417725,-0.004639,-0.302228,-0.626429,0.401419,-0.595910
27702,,9.691214,-0.986922,-0.956482,0.014230,0.008231,-0.000654,1.008789,-0.422363,-0.008789,-0.302183,-0.626473,0.401396,-0.595902
27703,,9.758818,-0.975950,-0.912174,0.006273,0.010241,0.000471,1.010742,-0.417725,-0.004395,-0.302153,-0.626501,0.401373,-0.595903
27704,,9.739994,-0.974252,-0.853914,0.009544,0.020426,-0.003923,1.015625,-0.419922,-0.006592,-0.302157,-0.626508,0.401335,-0.595919
27705,,9.721251,-0.968821,-0.837233,0.010754,0.021681,-0.007163,1.010742,-0.417725,-0.004395,-0.302160,-0.626524,0.401257,-0.595953
27706,,9.740451,-0.976614,-0.807394,0.015798,0.021205,-0.006485,1.015625,-0.422119,-0.004395,-0.302153,-0.626543,0.401192,-0.595980
27707,,9.770292,-0.941929,-0.901511,0.007654,0.019354,0.000708,1.013428,-0.422119,-0.013184,-0.302130,-0.626550,0.401143,-0.596018
27708,,9.702992,-0.953218,-0.942827,-0.004622,0.022456,0.003087,1.013428,-0.424561,-0.008545,-0.302162,-0.626515,0.401167,-0.596022
27709,,9.707506,-0.963836,-1.054677,-0.005345,0.021842,0.001149,1.013184,-0.419922,-0.002197,-0.302188,-0.626490,0.401164,-0.596037
27710,,9.703421,-0.946790,-1.023615,-0.004874,0.008334,0.002797,1.013184,-0.417725,-0.008789,-0.302192,-0.626498,0.401209,-0.595996
27711,,9.745472,-0.984216,-0.955437,-0.006404,0.000835,0.002110,1.015625,-0.422119,-0.004395,-0.302180,-0.626531,0.401243,-0.595945
27712,,9.766570,-0.925484,-0.865595,0.000956,0.005272,-0.000802,1.013184,-0.417725,-0.010986,-0.302171,-0.626564,0.401263,-0.595901
27713,,9.732799,-0.935952,-0.823637,0.007510,0.002826,-0.002463,1.015381,-0.417725,-0.008789,-0.302133,-0.626621,0.401240,-0.595876
27714,,9.718124,-0.944669,-0.880781,-0.001404,-0.000437,-0.000543,1.017822,-0.419922,-0.006592,-0.302119,-0.626667,0.401278,-0.595809
27715,,9.779234,-0.983510,-0.869329,-0.005597,0.007719,0.000859,1.017578,-0.415283,-0.011230,-0.302126,-0.626681,0.401299,-0.595777
27716,,9.783582,-1.000567,-0.897833,-0.013620,0.017608,-0.001659,1.010742,-0.417725,-0.006592,-0.302190,-0.626657,0.401342,-0.595741
27717,,9.754336,-1.021369,-0.968445,-0.015428,0.022802,-0.000214,1.013428,-0.422119,-0.008789,-0.302273,-0.626606,0.401379,-0.595727
27718,,9.701772,-1.023458,-0.952816,-0.023511,0.017750,0.000756,1.013184,-0.417725,-0.008789,-0.302361,-0.626562,0.401459,-0.595675
27719,,9.720963,-1.028227,-0.965629,-0.014596,0.021015,-0.001161,1.008545,-0.417725,-0.008789,-0.302426,-0.626527,0.401480,-0.595664
27720,,9.721253,-1.024584,-1.006157,0.007340,0.013114,-0.003208,1.010742,-0.417725,-0.008789,-0.302420,-0.626552,0.401462,-0.595654
27721,,9.725439,-1.048499,-0.950173,0.020380,0.011420,-0.000306,1.013184,-0.419922,-0.010986,-0.302362,-0.626592,0.401406,-0.595679
27722,,9.746730,-0.983294,-0.943472,0.016784,0.013130,0.002886,1.008545,-0.415527,-0.009033,-0.302309,-0.626618,0.401379,-0.595697
27723,,9.738403,-0.945819,-0.925140,0.014233,0.008238,-0.000638,1.010986,-0.422363,-0.013184,-0.302268,-0.626657,0.401349,-0.595697
27724,,9.738517,-0.945648,-0.924115,0.012492,0.010231,-0.005411,1.010742,-0.415527,-0.004639,-0.302247,-0.626701,0.401313,-0.595684
27725,,9.761932,-0.967452,-0.967272,0.007066,0.007664,-0.003804,1.010742,-0.415527,-0.010986,-0.302228,-0.626743,0.401286,-0.595669
27726,,9.724164,-0.953806,-0.979429,-0.006914,0.013554,-0.002879,1.017822,-0.419922,-0.008789,-0.302267,-0.626743,0.401311,-0.595632
27727,,9.694602,-0.984496,-0.924101,-0.010018,0.015903,-0.004864,1.008545,-0.420166,-0.008789,-0.302328,-0.626732,0.401325,-0.595602
27728,,9.737125,-1.011257,-0.981078,-0.001596,0.018530,-0.001602,1.010742,-0.417725,-0.006592,-0.302357,-0.626724,0.401331,-0.595593
27729,,9.747633,-0.985071,-0.892038,0.000766,0.024244,-0.001861,1.020264,-0.419922,-0.006592,-0.302380,-0.626705,0.401298,-0.595623
27730,,9.718742,-1.002566,-1.004317,0.000767,0.024245,-0.001861,1.008789,-0.422363,-0.006592,-0.302413,-0.626684,0.401288,-0.595636
27731,,9.757003,-1.012504,-1.031316,0.008786,0.014352,0.000668,1.013184,-0.419922,-0.006592,-0.302371,-0.626710,0.401239,-0.595662
27732,,9.714743,-0.985703,-0.971318,0.014697,0.012879,0.003743,1.010986,-0.419922,-0.006592,-0.302321,-0.626732,0.401222,-0.595676
27733,,9.710293,-0.972393,-0.898560,0.014718,0.004201,0.004049,1.015625,-0.422119,-0.010986,-0.302236,-0.626787,0.401188,-0.595684
27734,,9.721091,-0.936611,-0.937390,0.008659,0.007287,0.000524,1.006348,-0.420166,-0.008789,-0.302203,-0.626823,0.401187,-0.595664
27735,,9.759261,-0.946542,-0.965304,0.007494,0.011508,-0.002762,1.006104,-0.417969,-0.008789,-0.302179,-0.626856,0.401149,-0.595667
27736,,9.725628,-0.953736,-0.964849,0.004042,0.011607,0.000875,1.017822,-0.417725,-0.006592,-0.302169,-0.626872,0.401156,-0.595651
27737,,9.746683,-0.891570,-0.916574,-0.006169,0.005494,-0.000643,1.017822,-0.419922,-0.004395,-0.302177,-0.626894,0.401179,-0.595608
27738,,9.759357,-0.949717,-0.920344,-0.013169,0.012779,-0.000341,1.017578,-0.415283,-0.006836,-0.302226,-0.626882,0.401232,-0.595559
27739,,9.717501,-0.915800,-0.944587,-0.003105,0.020506,0.000729,1.017822,-0.419922,-0.008789,-0.302244,-0.626867,0.401218,-0.595576
27740,,9.759674,-0.949766,-0.916921,-0.010768,0.019291,0.002731,1.020020,-0.417480,-0.006836,-0.302290,-0.626833,0.401264,-0.595557
27741,,9.726290,-0.953792,-0.958102,-0.008533,0.017938,0.002331,1.013184,-0.415527,-0.006836,-0.302317,-0.626812,0.401277,-0.595556
27742,,9.713817,-0.895565,-0.952315,-0.003509,0.007984,-0.000004,1.010986,-0.419922,-0.008789,-0.302326,-0.626829,0.401310,-0.595512
27743,,9.740913,-0.945039,-0.899143,-0.010046,0.001751,0.001951,1.015381,-0.417725,-0.008789,-0.302330,-0.626852,0.401358,-0.595454
27744,,9.774891,-0.934423,-0.940601,-0.006297,-0.001573,-0.000787,1.006592,-0.427002,-0.008545,-0.302331,-0.626894,0.401410,-0.595373
27745,,9.732712,-0.903962,-0.923782,-0.009492,0.012663,0.003134,1.012939,-0.413086,-0.011230,-0.302333,-0.626894,0.401426,-0.595362
27746,,9.745172,-0.965673,-0.884987,-0.017634,0.015493,0.000453,1.013184,-0.417725,-0.013184,-0.302399,-0.626866,0.401491,-0.595314
27747,,9.730361,-0.981029,-0.856848,-0.013885,0.012170,-0.002285,1.015625,-0.422119,-0.008789,-0.302471,-0.626847,0.401545,-0.595261
27748,,9.701094,-1.005336,-0.885961,-0.017745,0.017903,0.003336,1.006104,-0.415527,-0.010986,-0.302534,-0.626806,0.401615,-0.595225
27749,,9.758401,-1.020478,-0.927567,-0.017172,0.020133,0.004825,1.010742,-0.417725,-0.008789,-0.302588,-0.626757,0.401666,-0.595214
27750,,9.743822,-1.033082,-0.941151,-0.011837,0.016428,0.006415,1.015625,-0.419922,-0.013184,-0.302620,-0.626723,0.401730,-0.595190
27751,,9.739745,-1.013158,-0.952698,-0.008719,0.005392,0.008708,1.010742,-0.415527,-0.006836,-0.302610,-0.626722,0.401793,-0.595154
27752,,9.731479,-0.972499,-0.977849,-0.002901,-0.007151,0.002095,1.010742,-0.415527,-0.010986,-0.302580,-0.626780,0.401853,-0.595068
27753,,9.693229,-0.962894,-0.949941,-0.020315,-0.009837,0.006933,1.015625,-0.419922,-0.008789,-0.302588,-0.626806,0.401975,-0.594954
27754,,9.741556,-0.943408,-0.935257,-0.036076,-0.012207,-0.003306,1.013184,-0.419922,-0.008789,-0.302668,-0.626840,0.402125,-0.594777
27755,,9.760044,-0.954860,-0.866321,-0.039804,0.000596,0.002463,1.015625,-0.419922,-0.008789,-0.302750,-0.626828,0.402251,-0.594663
27756,,9.759537,-0.961645,-0.781992,-0.031862,0.007268,0.001064,1.008545,-0.415527,-0.010986,-0.302842,-0.626801,0.402372,-0.594561
27757,,9.751133,-0.923889,-0.764074,-0.023055,0.012939,0.002053,1.013428,-0.424561,-0.006348,-0.302908,-0.626772,0.402441,-0.594512
27758,,9.751214,-0.923882,-0.763053,-0.024457,0.012504,0.001506,1.017578,-0.413086,-0.009033,-0.302987,-0.626740,0.402533,-0.594443
27759,,9.756175,-0.934195,-0.876297,-0.018111,0.006179,0.005929,1.010986,-0.422363,-0.015137,-0.303000,-0.626739,0.402594,-0.594397
27760,,9.796721,-0.870431,-0.926870,-0.035312,0.007373,0.004690,1.013428,-0.422119,-0.013184,-0.303093,-0.626699,0.402736,-0.594295
27761,,9.800834,-0.890999,-0.914233,-0.055023,0.004473,0.003248,1.008789,-0.424561,-0.008545,-0.303229,-0.626649,0.402910,-0.594161
27762,,9.815540,-0.878708,-0.898947,-0.068696,0.007162,0.005039,1.013184,-0.419922,-0.008789,-0.303425,-0.626559,0.403153,-0.593991
27763,,9.781582,-0.889036,-0.857151,-0.071007,0.015640,-0.001523,1.013428,-0.422119,-0.013184,-0.303629,-0.626472,0.403319,-0.593865
27764,,9.767333,-0.896946,-0.913583,-0.067478,0.017131,0.001508,1.015625,-0.419922,-0.013184,-0.303852,-0.626362,0.403532,-0.593723
27765,,9.752812,-0.908517,-0.927669,-0.056325,0.019042,-0.000778,1.012939,-0.413086,-0.015625,-0.304032,-0.626275,0.403670,-0.593628
27766,,9.698017,-0.980443,-0.933491,-0.062061,0.010245,-0.003141,1.015381,-0.415283,-0.017578,-0.304237,-0.626202,0.403863,-0.593468
27767,,9.732170,-0.968877,-0.974562,-0.074424,0.007090,0.002361,1.015381,-0.417725,-0.015381,-0.304482,-0.626092,0.404125,-0.593281
27768,,9.703553,-0.984871,-1.089141,-0.064429,0.013241,-0.003192,1.010986,-0.419922,-0.019775,-0.304701,-0.626007,0.404320,-0.593126
27769,,9.737216,-0.980500,-1.044859,-0.058978,0.025285,-0.001713,1.010742,-0.415527,-0.009033,-0.304924,-0.625887,0.404475,-0.593031
27770,,9.722799,-0.991883,-1.058468,-0.065083,0.022904,0.001253,1.015381,-0.417725,-0.015381,-0.305151,-0.625763,0.404672,-0.592912
27771,,9.704256,-0.982641,-1.084889,-0.063125,0.016100,0.000231,1.010742,-0.417725,-0.019775,-0.305355,-0.625667,0.404847,-0.592789
27772,,9.674701,-1.010058,-1.072796,-0.058333,0.010937,0.003645,1.015381,-0.417725,-0.017578,-0.305530,-0.625583,0.405049,-0.592649
27773,,9.679161,-1.026788,-1.102394,-0.049226,0.004669,0.005818,1.013428,-0.424561,-0.012939,-0.305664,-0.625521,0.405235,-0.592518
27774,,9.706379,-1.073094,-1.092246,-0.046422,0.005537,0.006918,1.010986,-0.419922,-0.017578,-0.305780,-0.625465,0.405420,-0.592391
27775,,9.691682,-1.085348,-1.107671,-0.035524,0.002754,0.007368,1.015625,-0.419922,-0.017578,-0.305829,-0.625447,0.405538,-0.592303
27776,,9.701804,-1.057013,-1.063060,-0.031017,-0.007876,0.010158,1.015381,-0.415283,-0.015381,-0.305860,-0.625448,0.405708,-0.592170
27777,,9.718430,-0.975440,-1.027833,-0.026420,-0.003521,0.009540,1.010986,-0.422363,-0.013184,-0.305885,-0.625444,0.405838,-0.592072
27778,,9.737058,-0.984573,-1.000784,-0.035115,-0.002863,0.005349,1.015625,-0.419922,-0.017578,-0.305954,-0.625433,0.405997,-0.591938
27779,,9.781021,-0.949007,-0.954689,-0.032291,0.007462,0.009536,1.012939,-0.413086,-0.015625,-0.305998,-0.625402,0.406106,-0.591875
27780,,9.737406,-0.981432,-1.042213,-0.015186,0.013359,0.003877,1.010742,-0.415527,-0.019775,-0.306042,-0.625376,0.406177,-0.591830
27781,,9.746027,-1.019089,-1.058334,0.002781,0.018239,0.000604,1.013184,-0.422119,-0.019531,-0.306064,-0.625360,0.406179,-0.591835
27782,,9.756831,-0.986447,-1.053342,-0.000850,0.019171,0.000452,1.008545,-0.420166,-0.017578,-0.306085,-0.625346,0.406187,-0.591833
27783,,9.732127,-1.027099,-1.112349,-0.000591,0.015162,-0.002007,1.018066,-0.424316,-0.017334,-0.306088,-0.625357,0.406166,-0.591834
27784,,9.708380,-1.009109,-1.024773,-0.005218,0.010037,-0.004732,1.012939,-0.415527,-0.013184,-0.306119,-0.625374,0.406186,-0.591786
27785,,9.682473,-1.061200,-0.958313,-0.005073,0.008420,-0.004293,1.015625,-0.419922,-0.017578,-0.306124,-0.625408,0.406172,-0.591758
27786,,9.693207,-1.028174,-0.954216,-0.001701,0.011498,-0.001682,1.010986,-0.422363,-0.013184,-0.306139,-0.625420,0.406188,-0.591727
27787,,9.706262,-1.082557,-1.000417,0.015364,0.012642,0.002492,1.010986,-0.422363,-0.017334,-0.306061,-0.625462,0.406122,-0.591767
27788,,9.747089,-1.018404,-1.049172,0.024566,0.012656,0.001518,1.012939,-0.413086,-0.013428,-0.305986,-0.625504,0.406069,-0.591798
27789,,9.755292,-1.060364,-1.023069,0.011620,0.015967,0.005235,1.020264,-0.422119,-0.019531,-0.305936,-0.625515,0.406035,-0.591836
27790,,9.713539,-1.026530,-1.047329,0.004337,0.008363,0.001845,1.006104,-0.415527,-0.019775,-0.305915,-0.625538,0.406050,-0.591812
27791,,9.732737,-1.031546,-1.060710,0.016881,0.010682,0.000146,1.010986,-0.424561,-0.019531,-0.305861,-0.625577,0.406004,-0.591831
27792,,9.686521,-0.980395,-1.055746,0.031894,-0.001836,-0.007492,1.010986,-0.422119,-0.019531,-0.305760,-0.625692,0.405923,-0.591817
27793,,9.734525,-0.964870,-0.997258,0.023697,-0.004482,-0.003695,1.015625,-0.419922,-0.013184,-0.305642,-0.625807,0.405845,-0.591809
27794,,9.775969,-1.002833,-0.929538,0.030381,0.000131,-0.005151,1.010986,-0.419922,-0.015381,-0.305544,-0.625909,0.405773,-0.591801
27795,,9.752074,-0.985143,-0.842015,0.026937,0.018382,0.001293,1.013184,-0.419922,-0.017578,-0.305446,-0.625954,0.405661,-0.591881
27796,,9.733123,-0.980660,-0.825320,0.031535,0.022740,0.000675,1.010986,-0.422363,-0.017334,-0.305372,-0.625979,0.405569,-0.591956
27797,,9.730140,-0.952671,-0.919340,0.034483,0.021987,0.002220,1.013184,-0.417725,-0.013184,-0.305260,-0.626019,0.405439,-0.592060
27798,,9.710502,-1.007041,-1.049164,0.045487,0.025503,-0.000476,1.008545,-0.417725,-0.017578,-0.305151,-0.626059,0.405298,-0.592170
27799,,9.677938,-1.006947,-1.131588,0.050639,0.022616,-0.002665,1.010986,-0.422363,-0.013184,-0.305016,-0.626125,0.405115,-0.592295
27800,,9.707438,-0.983146,-1.098453,0.043386,0.015784,-0.002712,1.020264,-0.419678,-0.013184,-0.304901,-0.626195,0.404988,-0.592367
27801,,9.766546,-0.931361,-1.077685,0.045203,0.001893,-0.003900,1.012939,-0.415527,-0.015381,-0.304722,-0.626332,0.404824,-0.592428
27802,,9.762126,-0.914451,-1.047158,0.039883,0.005628,-0.005497,1.013184,-0.419922,-0.021973,-0.304606,-0.626432,0.404714,-0.592456
27803,,9.765830,-0.938537,-0.991546,0.046544,0.009467,-0.010296,1.015869,-0.426758,-0.017334,-0.304492,-0.626538,0.404553,-0.592513
27804,,9.751464,-0.950094,-1.004916,0.061892,0.021367,-0.011171,1.013184,-0.417725,-0.015381,-0.304355,-0.626637,0.404337,-0.592626
27805,,9.729655,-1.022572,-0.923606,0.062747,0.029064,-0.009067,1.013184,-0.419922,-0.015381,-0.304195,-0.626727,0.404069,-0.592796
27806,,9.730010,-1.022299,-0.920160,0.060665,0.028817,-0.008232,1.017578,-0.413086,-0.017822,-0.304068,-0.626795,0.403854,-0.592935
27807,,9.693030,-1.005191,-0.972823,0.051639,0.019270,-0.003204,1.008545,-0.419922,-0.019775,-0.303938,-0.626866,0.403685,-0.593043
27808,,9.757745,-0.963135,-1.065246,0.048442,0.015348,-0.002028,1.013428,-0.424561,-0.015137,-0.303804,-0.626943,0.403545,-0.593125
27809,,9.721214,-0.943085,-1.160827,0.063975,0.017736,0.001151,1.015625,-0.422119,-0.017334,-0.303593,-0.627043,0.403332,-0.593273
27810,,9.701150,-0.946133,-1.060227,0.054486,0.012252,0.001512,1.015625,-0.422119,-0.017334,-0.303423,-0.627131,0.403191,-0.593362
27811,,9.741027,-0.889700,-1.025095,0.062566,0.007833,-0.002450,1.008545,-0.420166,-0.013184,-0.303208,-0.627265,0.402986,-0.593470
27812,,9.732561,-0.852245,-1.006633,0.043973,0.008602,-0.004298,1.013184,-0.419922,-0.019775,-0.303082,-0.627360,0.402863,-0.593517
27813,,9.726180,-0.905353,-0.995527,0.043373,0.014284,-0.009427,1.015625,-0.424316,-0.012939,-0.302970,-0.627453,0.402693,-0.593591
27814,,9.729949,-0.928796,-0.938461,0.043622,0.027660,-0.012468,1.015137,-0.410889,-0.015625,-0.302907,-0.627508,0.402517,-0.593685
27815,,9.683393,-0.880564,-0.889474,0.041271,0.031432,-0.009196,1.015381,-0.417725,-0.015381,-0.302841,-0.627544,0.402331,-0.593806
27816,,9.726625,-0.907091,-0.944908,0.025229,0.019690,-0.006902,1.015381,-0.417725,-0.015381,-0.302803,-0.627583,0.402238,-0.593847
27817,,9.762401,-0.889286,-1.067770,0.029024,0.026650,-0.003265,1.010986,-0.419922,-0.010986,-0.302752,-0.627600,0.402119,-0.593935
27818,,9.766685,-0.909593,-1.052976,0.015591,0.015807,-0.006981,1.013428,-0.422119,-0.013184,-0.302737,-0.627637,0.402061,-0.593944
27819,,9.801268,-0.898767,-1.092020,0.021642,0.022204,-0.000401,1.017822,-0.417480,-0.013184,-0.302663,-0.627668,0.401951,-0.594024
27820,,9.662656,-0.846878,-0.959950,0.011827,0.027840,-0.004573,1.020020,-0.415283,-0.013428,-0.302677,-0.627658,0.401893,-0.594066
27821,,9.594224,-0.867690,-0.875187,0.004823,0.025651,-0.007333,1.017822,-0.419922,-0.010986,-0.302713,-0.627650,0.401833,-0.594097
27822,,9.748661,-0.842971,-0.882697,0.013619,0.021842,-0.009335,1.010986,-0.419922,-0.015381,-0.302723,-0.627670,0.401764,-0.594117
27823,,9.819186,-0.915609,-0.927285,0.027341,0.029464,-0.004719,1.010986,-0.419922,-0.008789,-0.302668,-0.627691,0.401622,-0.594219
27824,,9.798510,-0.980832,-0.928892,0.016563,0.048010,-0.005393,1.010742,-0.417725,-0.015381,-0.302710,-0.627630,0.401517,-0.594333
27825,,9.727702,-1.034863,-1.085124,0.001639,0.049427,-0.000435,1.015625,-0.422119,-0.013184,-0.302767,-0.627542,0.401438,-0.594450
27826,,9.718356,-1.064077,-1.125845,-0.013173,0.038930,-0.001378,1.013184,-0.417725,-0.006592,-0.302871,-0.627454,0.401448,-0.594482
27827,,9.693725,-1.108828,-1.140579,-0.026430,0.036753,0.001698,1.013184,-0.419922,-0.008789,-0.302972,-0.627365,0.401464,-0.594514
27828,,9.702782,-1.146297,-1.154733,-0.010092,0.027078,-0.002387,1.010742,-0.413330,-0.009033,-0.303046,-0.627320,0.401480,-0.594514
27829,,9.721586,-1.154540,-1.124236,0.023598,0.024106,-0.001668,1.017822,-0.417480,-0.008789,-0.302989,-0.627342,0.401371,-0.594593
27830,,9.758131,-1.174623,-1.023249,0.036575,0.029527,-0.005645,1.010742,-0.415527,-0.019775,-0.302932,-0.627366,0.401234,-0.594689
27831,,9.700820,-1.159411,-0.977241,0.047039,0.030837,-0.009826,1.013184,-0.419922,-0.010986,-0.302860,-0.627406,0.401044,-0.594811
27832,,9.657734,-1.195649,-1.019976,0.060186,0.026737,-0.009701,1.013184,-0.417725,-0.010986,-0.302735,-0.627483,0.400828,-0.594940
27833,,9.658086,-1.195522,-1.016781,0.077680,0.022345,-0.007462,1.013184,-0.417725,-0.006592,-0.302519,-0.627605,0.400542,-0.595114
27834,,9.620634,-1.182592,-1.027851,0.095606,0.013110,-0.003862,1.015381,-0.417725,-0.006592,-0.302238,-0.627764,0.400260,-0.595279
27835,,9.685273,-1.080828,-0.974192,0.112530,0.005701,-0.006444,1.013184,-0.415527,-0.004639,-0.301868,-0.627991,0.399887,-0.595477
27836,,9.739338,-1.011903,-0.923652,0.111867,0.006714,-0.001739,1.017578,-0.415283,-0.011230,-0.301516,-0.628189,0.399573,-0.595658
27837,,9.766195,-0.897247,-0.884208,0.113011,0.011225,0.001217,1.015381,-0.413086,-0.006836,-0.301153,-0.628372,0.399235,-0.595874
27838,,9.821078,-0.825685,-0.875156,0.110797,0.022125,0.004566,1.017578,-0.415283,-0.006836,-0.300817,-0.628510,0.398920,-0.596111
27839,,9.774008,-0.779055,-0.826820,0.113880,0.027712,0.002892,1.020264,-0.422119,-0.004395,-0.300484,-0.628638,0.398566,-0.596380
27840,,9.742261,-0.716769,-0.805200,0.109550,0.028026,0.000764,1.017578,-0.410889,-0.006836,-0.300175,-0.628763,0.398233,-0.596626
27841,,9.724892,-0.706508,-0.872279,0.105776,0.021058,-0.002852,1.013184,-0.419922,-0.008789,-0.299859,-0.628919,0.397880,-0.596856
27842,,9.710639,-0.654650,-0.781891,0.084523,0.011353,-0.001701,1.018066,-0.422119,-0.010986,-0.299602,-0.629061,0.397639,-0.596996
27843,,9.687478,-0.629234,-0.779796,0.053583,-0.003923,-0.007263,1.017822,-0.417725,-0.006592,-0.299407,-0.629224,0.397464,-0.597039
27844,,9.730027,-0.594689,-0.691832,0.034279,-0.002248,-0.004439,1.015381,-0.415283,-0.009033,-0.299289,-0.629336,0.397385,-0.597032
27845,,9.726110,-0.573983,-0.704412,0.010197,0.004543,-0.005114,1.017822,-0.417480,-0.008789,-0.299259,-0.629395,0.397349,-0.597010
27846,,9.758144,-0.637223,-0.721687,-0.025472,0.007159,0.002101,1.010742,-0.415527,-0.006836,-0.299328,-0.629377,0.397454,-0.596923
27847,,9.763844,-0.651984,-0.792680,-0.052610,0.009213,0.006425,1.010742,-0.415527,-0.010986,-0.299469,-0.629305,0.397634,-0.596809
27848,,9.800676,-0.733212,-0.839168,-0.060017,0.013466,0.008936,1.015381,-0.417725,-0.008789,-0.299640,-0.629203,0.397855,-0.596684
27849,,9.770100,-0.829128,-0.887332,-0.066025,0.026880,0.011629,1.017822,-0.417725,-0.004639,-0.299848,-0.629044,0.398072,-0.596602
27850,,9.734765,-0.907424,-0.905678,-0.067432,0.025632,0.007744,1.015625,-0.419922,-0.006592,-0.300069,-0.628897,0.398292,-0.596499
27851,,9.748446,-0.963152,-0.950292,-0.067964,0.016312,0.013277,1.010742,-0.415527,-0.004639,-0.300228,-0.628782,0.398502,-0.596400
27852,,9.740573,-0.922791,-0.975405,-0.067825,0.005183,0.010763,1.017578,-0.413086,-0.011230,-0.300401,-0.628689,0.398764,-0.596236
27853,,9.773353,-0.918935,-0.932198,-0.066983,0.003394,0.009829,1.013428,-0.422119,-0.008789,-0.300575,-0.628600,0.399015,-0.596074
27854,,9.717247,-0.897929,-0.974613,-0.061102,0.001136,0.009626,1.010742,-0.417725,-0.010986,-0.300722,-0.628531,0.399259,-0.595909
27855,,9.693101,-0.875747,-0.931243,-0.065159,0.006910,0.008069,1.017822,-0.417480,-0.015381,-0.300875,-0.628454,0.399468,-0.595773
27856,,9.697032,-0.960907,-1.022085,-0.073112,0.009739,0.012426,1.010742,-0.415527,-0.010986,-0.301068,-0.628336,0.399744,-0.595615
27857,,9.657574,-1.018735,-1.055146,-0.058982,0.010946,0.011757,1.010986,-0.422363,-0.010986,-0.301229,-0.628230,0.399970,-0.595493
27858,,9.703918,-1.070487,-1.057739,-0.057848,0.006724,0.015066,1.008545,-0.420166,-0.015381,-0.301361,-0.628138,0.400214,-0.595360
27859,,9.755051,-1.139726,-1.089913,-0.053089,0.009495,0.014881,1.015625,-0.419922,-0.013184,-0.301462,-0.628056,0.400407,-0.595265
27860,,9.707683,-1.092952,-1.044366,-0.044684,0.012150,0.018205,1.010986,-0.422363,-0.008789,-0.301553,-0.627962,0.400612,-0.595180
27861,,9.706622,-1.097669,-1.001909,-0.027482,0.002270,0.019904,1.013184,-0.417725,-0.010986,-0.301536,-0.627936,0.400745,-0.595127
27862,,9.677477,-1.059948,-0.928856,-0.018104,0.001499,0.022755,1.013184,-0.417725,-0.017578,-0.301509,-0.627904,0.400901,-0.595069
27863,,9.663682,-1.006940,-0.882948,-0.006648,-0.008533,0.021779,1.008545,-0.417725,-0.013184,-0.301432,-0.627918,0.401029,-0.595008
27864,,9.730912,-0.994296,-0.881215,-0.005410,-0.008079,0.015219,1.013184,-0.419922,-0.015381,-0.301369,-0.627949,0.401139,-0.594933
27865,,9.750884,-0.997535,-0.938337,-0.007504,-0.008337,0.016051,1.015381,-0.417725,-0.008789,-0.301305,-0.627975,0.401244,-0.594866
27866,,9.785366,-0.988372,-0.979771,-0.018134,-0.000902,0.012766,1.010986,-0.422363,-0.013184,-0.301304,-0.627970,0.401373,-0.594785
27867,,9.765991,-0.984377,-0.965608,-0.019387,0.005755,0.012333,1.015625,-0.419922,-0.008789,-0.301297,-0.627958,0.401457,-0.594745
27868,,9.755393,-1.017972,-0.967525,-0.023858,0.016389,0.009426,1.010742,-0.417725,-0.015381,-0.301357,-0.627900,0.401567,-0.594701
27869,,9.712015,-1.055379,-1.012574,-0.018543,0.012672,0.011067,1.015625,-0.422119,-0.006592,-0.301377,-0.627864,0.401646,-0.594676
27870,,9.749637,-1.069734,-0.997575,-0.006378,0.011967,0.011701,1.006104,-0.415527,-0.010986,-0.301367,-0.627841,0.401717,-0.594657
27871,,9.711956,-1.057671,-1.010745,0.007883,0.003606,0.015163,1.015625,-0.419922,-0.010986,-0.301260,-0.627871,0.401730,-0.594670
27872,,9.731136,-1.000225,-0.920860,0.014990,-0.006136,0.012065,1.008545,-0.417725,-0.021973,-0.301146,-0.627934,0.401766,-0.594638
27873,,9.733840,-1.025271,-0.867046,0.016507,-0.016833,0.010076,1.013184,-0.417725,-0.013184,-0.301017,-0.628028,0.401803,-0.594578
27874,,9.677683,-1.004600,-0.910067,0.011484,-0.007634,0.009011,1.013184,-0.417725,-0.017578,-0.300920,-0.628096,0.401843,-0.594530
27875,,9.698793,-0.939998,-0.904981,0.011900,-0.004578,0.006714,1.013428,-0.422119,-0.017334,-0.300841,-0.628153,0.401865,-0.594494
27876,,9.717083,-0.948850,-0.876939,0.003369,0.003119,0.002597,1.017822,-0.422119,-0.015381,-0.300810,-0.628189,0.401892,-0.594453
27877,,9.744998,-0.991973,-0.907701,0.002107,0.001061,0.002497,1.010986,-0.419922,-0.013184,-0.300763,-0.628238,0.401897,-0.594422
27878,,9.768078,-1.018054,-0.909158,-0.014790,0.000622,0.008701,1.010986,-0.419922,-0.013184,-0.300766,-0.628242,0.402001,-0.594346
27879,,9.759244,-1.044991,-0.996187,-0.023585,0.004451,0.010665,1.010986,-0.419922,-0.010986,-0.300781,-0.628226,0.402102,-0.594287
27880,,9.729271,-1.073681,-0.984457,-0.017413,0.008449,0.014372,1.006104,-0.417969,-0.017578,-0.300791,-0.628191,0.402220,-0.594238
27881,,9.738895,-1.045145,-0.939251,-0.008366,-0.000224,0.006657,1.010986,-0.422363,-0.015137,-0.300771,-0.628214,0.402282,-0.594183
27882,,9.741688,-1.069627,-0.884964,0.005879,-0.009394,0.006789,1.015381,-0.417725,-0.019775,-0.300695,-0.628282,0.402333,-0.594114
27883,,9.757935,-1.051478,-0.954330,0.008820,-0.002224,0.004694,1.015625,-0.422119,-0.015381,-0.300627,-0.628337,0.402346,-0.594082
27884,,9.819590,-1.087544,-0.983693,0.014412,0.006640,-0.000075,1.010742,-0.417725,-0.013184,-0.300577,-0.628385,0.402327,-0.594070
27885,,9.750371,-1.010799,-0.977874,0.025608,0.017260,-0.002625,1.008545,-0.417725,-0.017578,-0.300505,-0.628430,0.402222,-0.594129
27886,,9.732243,-1.002315,-1.004098,0.025735,0.014840,-0.005500,1.006592,-0.424561,-0.015137,-0.300452,-0.628482,0.402140,-0.594158
27887,,9.744049,-0.966097,-1.041635,0.022670,0.018005,-0.004192,1.008545,-0.420166,-0.015381,-0.300396,-0.628522,0.402042,-0.594209
27888,,9.711468,-0.969648,-1.083407,0.018039,0.012829,-0.006890,1.010986,-0.419922,-0.015381,-0.300366,-0.628570,0.401981,-0.594214
27889,,9.685544,-1.017680,-1.058222,0.015676,0.008705,0.000024,1.013184,-0.422119,-0.021729,-0.300304,-0.628618,0.401933,-0.594228
27890,,9.614296,-1.011464,-1.072526,0.005606,0.009670,-0.001445,1.012939,-0.415527,-0.011230,-0.300291,-0.628646,0.401931,-0.594206
27891,,9.708827,-1.043458,-1.058012,-0.004456,0.003529,0.004081,1.013184,-0.419922,-0.013184,-0.300282,-0.628664,0.401974,-0.594162
27892,,9.717531,-1.017587,-0.970384,-0.004164,0.009008,0.004655,1.010742,-0.417725,-0.015381,-0.300280,-0.628668,0.402021,-0.594128
27893,,9.709920,-0.977007,-0.994609,-0.005968,0.014231,0.006062,1.013184,-0.419922,-0.013184,-0.300281,-0.628654,0.402048,-0.594124
27894,,9.713796,-0.997978,-0.981096,-0.000960,0.004226,0.003804,1.015625,-0.419922,-0.017578,-0.300262,-0.628678,0.402090,-0.594079
27895,,9.718617,-1.015619,-1.010195,-0.000960,0.004226,0.003804,1.015625,-0.424316,-0.015137,-0.300232,-0.628707,0.402108,-0.594052
27896,,9.758181,-1.022851,-1.080186,-0.000127,0.002424,0.002873,1.013184,-0.419922,-0.015381,-0.300209,-0.628740,0.402147,-0.594002
27897,,9.705166,-1.025036,-1.067036,-0.003342,0.006402,0.000395,1.015869,-0.426758,-0.017334,-0.300186,-0.628776,0.402142,-0.593980
27898,,9.745660,-1.062232,-0.997546,-0.007809,0.009127,0.001146,1.008545,-0.420166,-0.015381,-0.300206,-0.628780,0.402189,-0.593933
27899,,9.767012,-0.996974,-0.991096,-0.004302,0.010629,0.004199,1.018066,-0.424316,-0.017334,-0.300177,-0.628797,0.402188,-0.593930
27900,,9.709219,-0.982058,-0.947726,0.001153,0.013201,0.002637,1.010742,-0.417725,-0.017578,-0.300173,-0.628800,0.402207,-0.593916
27901,,9.744077,-0.972117,-0.987140,0.010389,0.014036,0.005041,1.013428,-0.426758,-0.015137,-0.300122,-0.628815,0.402179,-0.593945
27902,,9.758674,-0.960350,-0.969940,0.016265,0.019664,0.001181,1.008789,-0.422363,-0.017334,-0.300088,-0.628824,0.402139,-0.593980
27903,,9.706857,-1.023425,-1.101520,0.014572,0.013746,0.000050,1.013184,-0.417725,-0.013184,-0.300010,-0.628873,0.402057,-0.594022
27904,,9.736984,-0.995845,-1.111130,0.024220,0.016832,-0.003172,1.006348,-0.420166,-0.015381,-0.299959,-0.628911,0.401984,-0.594058
27905,,9.662054,-0.968684,-1.137691,0.010352,0.010815,-0.008276,1.015381,-0.417725,-0.015381,-0.299941,-0.628962,0.401920,-0.594055
27906,,9.706325,-1.025757,-1.055747,0.010884,-0.004381,-0.006110,1.008545,-0.415527,-0.015381,-0.299898,-0.629050,0.401909,-0.593993
27907,,9.685996,-1.023573,-0.999758,0.002929,-0.001546,-0.001760,1.013184,-0.419922,-0.013184,-0.299878,-0.629102,0.401924,-0.593937
27908,,9.683946,-1.029917,-0.915331,0.001126,0.003678,-0.000357,1.010986,-0.419922,-0.015381,-0.299864,-0.629139,0.401948,-0.593888
27909,,9.717765,-1.022832,-0.913241,0.006315,0.010297,0.000497,1.013184,-0.419922,-0.013184,-0.299823,-0.629174,0.401914,-0.593895
27910,,9.751630,-1.015874,-0.910501,0.008009,0.016219,0.001624,1.008545,-0.417725,-0.019775,-0.299806,-0.629180,0.401905,-0.593903
27911,,9.725869,-0.966945,-0.962251,0.002287,0.017692,0.005600,1.010986,-0.424561,-0.012939,-0.299793,-0.629167,0.401906,-0.593923
27912,,9.741612,-1.016061,-1.091519,-0.007104,0.009753,0.003077,1.013428,-0.424561,-0.015137,-0.299807,-0.629167,0.401956,-0.593883
27913,,9.756124,-1.004167,-1.075173,-0.006400,0.010377,0.005019,1.015625,-0.419922,-0.019775,-0.299762,-0.629193,0.401942,-0.593888
27914,,9.750239,-0.990202,-1.002990,-0.010902,0.002768,-0.000550,1.008789,-0.422363,-0.012939,-0.299784,-0.629215,0.402002,-0.593812
27915,,9.750266,-0.990137,-1.002794,-0.010198,0.003392,0.001392,1.003906,-0.417969,-0.015381,-0.299778,-0.629244,0.402031,-0.593765
27916,,9.711675,-0.979940,-0.974381,-0.008238,0.005268,0.000106,1.022461,-0.419678,-0.015381,-0.299795,-0.629261,0.402082,-0.593703
27917,,9.688613,-0.954295,-0.972504,0.002390,0.005739,-0.000257,1.013184,-0.422119,-0.021729,-0.299769,-0.629300,0.402073,-0.593682
27918,,9.707996,-0.959359,-0.985886,0.002253,0.007358,-0.000713,1.010986,-0.422363,-0.017334,-0.299760,-0.629328,0.402087,-0.593647
27919,,9.716734,-0.997075,-1.002201,-0.001674,0.002799,-0.001470,1.017822,-0.422119,-0.015381,-0.299737,-0.629375,0.402087,-0.593608
27920,,9.692767,-1.038656,-1.062385,-0.012998,0.002512,0.000277,1.013184,-0.417725,-0.013184,-0.299763,-0.629393,0.402156,-0.593529
27921,,9.735242,-1.069152,-1.077612,-0.018169,0.004615,-0.000920,1.013428,-0.422119,-0.017334,-0.299787,-0.629415,0.402192,-0.593470
27922,,9.717035,-1.060585,-1.105678,-0.015662,0.000014,-0.000380,1.010986,-0.422119,-0.023926,-0.299818,-0.629438,0.402271,-0.593376
27923,,9.721903,-1.077960,-1.135179,-0.004322,0.001913,0.004530,1.015625,-0.419922,-0.024170,-0.299786,-0.629470,0.402301,-0.593337
27924,,9.723574,-1.105113,-1.037813,0.000853,0.006919,-0.001268,1.010986,-0.422119,-0.021729,-0.299782,-0.629499,0.402318,-0.593297
27925,,9.733174,-1.075498,-0.992593,0.008660,-0.002213,-0.002403,1.017822,-0.422119,-0.021729,-0.299736,-0.629567,0.402311,-0.593253
27926,,9.711128,-1.046629,-1.033481,0.012998,-0.002513,-0.000277,1.010986,-0.419922,-0.015381,-0.299672,-0.629640,0.402309,-0.593209
27927,,9.738935,-1.025491,-0.960259,0.016084,0.003043,-0.001918,1.012939,-0.415283,-0.021973,-0.299593,-0.629716,0.402250,-0.593208
27928,,9.792099,-1.023297,-0.972136,0.014136,0.009083,-0.004302,1.017578,-0.415283,-0.021973,-0.299561,-0.629765,0.402215,-0.593197
27929,,9.760669,-1.023825,-1.056519,0.026595,0.013858,-0.003077,1.017822,-0.419922,-0.015381,-0.299525,-0.629794,0.402159,-0.593222
27930,,9.709693,-0.955261,-1.022940,0.024070,0.009740,-0.003277,1.010742,-0.417725,-0.021973,-0.299459,-0.629854,0.402097,-0.593234
27931,,9.708215,-0.928556,-1.118561,0.014582,0.014564,0.003381,1.015625,-0.424316,-0.019531,-0.299406,-0.629874,0.402055,-0.593267
27932,,9.738292,-0.901471,-1.128339,0.027583,0.012056,0.003107,1.008301,-0.413330,-0.017822,-0.299315,-0.629919,0.401999,-0.593304
27933,,9.713048,-0.882849,-1.041410,0.018491,0.010405,0.004479,1.008545,-0.419922,-0.023926,-0.299238,-0.629955,0.401957,-0.593333
27934,,9.723743,-0.850562,-1.037727,0.004495,0.006806,0.002239,1.017822,-0.419922,-0.015381,-0.299212,-0.629982,0.401974,-0.593305
27935,,9.699565,-0.828186,-0.993682,0.005322,0.004194,-0.002016,1.015381,-0.417725,-0.015381,-0.299180,-0.630032,0.401958,-0.593280
27936,,9.703380,-0.848615,-0.980807,-0.003498,-0.000698,0.000272,1.010986,-0.422363,-0.017334,-0.299170,-0.630074,0.402004,-0.593210
27937,,9.732510,-0.888203,-1.053974,-0.004768,-0.003567,-0.003155,1.010986,-0.422119,-0.019531,-0.299142,-0.630144,0.402006,-0.593147
27938,,9.743881,-0.949370,-1.016221,-0.007002,-0.002204,-0.002784,1.013184,-0.419922,-0.021973,-0.299149,-0.630191,0.402055,-0.593061
27939,,9.775743,-1.012517,-1.034156,-0.007679,0.006703,-0.001745,1.008545,-0.419922,-0.019775,-0.299156,-0.630217,0.402068,-0.593021
27940,,9.767161,-0.974505,-1.016459,-0.008219,0.013990,-0.000248,1.008545,-0.417725,-0.019775,-0.299192,-0.630209,0.402105,-0.592986
27941,,9.741119,-1.022634,-0.991245,-0.011013,0.013918,0.001966,1.017822,-0.417480,-0.021973,-0.299221,-0.630195,0.402138,-0.592963
27942,,9.756769,-1.007320,-1.016834,-0.008642,0.010936,0.002053,1.017822,-0.417480,-0.017578,-0.299246,-0.630191,0.402187,-0.592922
27943,,9.737522,-1.002472,-1.001733,-0.003041,0.012699,0.004281,1.022461,-0.419678,-0.024170,-0.299250,-0.630184,0.402212,-0.592910
27944,,9.719352,-0.994575,-1.029195,-0.015788,0.003246,0.005809,1.008789,-0.422363,-0.019531,-0.299270,-0.630185,0.402306,-0.592836
27945,,9.702292,-0.983394,-1.099207,-0.011730,0.005380,0.003695,1.010986,-0.424561,-0.015137,-0.299273,-0.630197,0.402351,-0.592791
27946,,9.706105,-1.004083,-1.086071,-0.007535,0.005894,0.002039,1.010986,-0.422119,-0.023926,-0.299284,-0.630209,0.402404,-0.592736
27947,,9.744859,-1.014457,-1.113228,-0.013805,0.013849,0.004179,1.013184,-0.419922,-0.013184,-0.299281,-0.630209,0.402417,-0.592729
27948,,9.695685,-1.037150,-1.086601,-0.009882,0.017604,0.001609,1.013428,-0.424316,-0.019531,-0.299324,-0.630184,0.402458,-0.592706
27949,,9.692132,-1.016518,-1.097424,-0.007495,0.022539,-0.001976,1.013184,-0.419922,-0.019775,-0.299332,-0.630184,0.402411,-0.592734
27950,,9.710564,-1.024545,-1.067274,0.002704,0.019145,-0.003355,1.017578,-0.415283,-0.024170,-0.299353,-0.630184,0.402397,-0.592733
27951,,9.723264,-1.082702,-1.069595,0.011507,0.016119,-0.001963,1.013184,-0.422119,-0.019531,-0.299343,-0.630197,0.402362,-0.592749
27952,,9.734068,-1.049950,-1.065268,0.017511,0.012213,-0.001687,1.008789,-0.422363,-0.021729,-0.299299,-0.630235,0.402320,-0.592758
27953,,9.729233,-1.032806,-1.034557,0.018485,0.009597,0.001171,1.013184,-0.419922,-0.019775,-0.299206,-0.630295,0.402245,-0.592792
27954,,9.706163,-1.007669,-1.032338,0.008132,0.006693,0.005762,1.008301,-0.415527,-0.019775,-0.299157,-0.630321,0.402263,-0.592777
27955,,9.702435,-0.987617,-1.044252,-0.003471,0.008838,0.003250,1.015625,-0.422119,-0.021729,-0.299154,-0.630329,0.402289,-0.592753
27956,,9.713182,-0.955154,-1.040173,0.005782,0.017597,0.001999,1.013428,-0.422119,-0.017334,-0.299146,-0.630327,0.402285,-0.592761
27957,,9.747123,-0.948322,-1.036633,0.006077,0.023084,0.002568,1.010742,-0.417725,-0.019775,-0.299111,-0.630329,0.402225,-0.592818
27958,,9.725413,-0.919799,-1.075476,0.011515,0.016932,0.001362,1.008545,-0.417725,-0.021973,-0.299086,-0.630338,0.402204,-0.592835
27959,,9.748690,-0.945555,-1.075173,0.000320,0.014215,0.000221,1.018066,-0.424316,-0.017334,-0.299095,-0.630338,0.402207,-0.592828
27960,,9.716219,-0.949678,-1.118187,0.000138,-0.000812,0.003786,1.010986,-0.422119,-0.019531,-0.299063,-0.630379,0.402254,-0.592770
27961,,9.723763,-0.990851,-1.092273,0.003388,0.011047,-0.001073,1.013184,-0.417725,-0.021973,-0.299011,-0.630427,0.402195,-0.592784
27962,,9.690176,-0.997865,-1.092433,0.010114,0.015684,-0.002524,1.006592,-0.424561,-0.017334,-0.298999,-0.630446,0.402167,-0.592789
27963,,9.746050,-1.019504,-1.047815,0.006373,0.027768,-0.000195,1.010742,-0.417725,-0.019775,-0.298987,-0.630436,0.402099,-0.592853
27964,,9.730707,-1.035158,-1.018215,0.014772,0.030416,0.003157,1.013184,-0.422119,-0.023926,-0.298974,-0.630407,0.402053,-0.592921
27965,,9.690374,-0.934106,-0.980646,0.008609,0.026407,-0.000565,1.010986,-0.419922,-0.023926,-0.298972,-0.630392,0.402000,-0.592974
27966,,9.714968,-0.956718,-1.021892,0.000188,0.016651,0.003085,1.015625,-0.419922,-0.021973,-0.298977,-0.630382,0.402018,-0.592970
27967,,9.765760,-0.931379,-1.087786,0.016390,0.009348,0.002008,1.010986,-0.422363,-0.013184,-0.298915,-0.630420,0.401981,-0.592985
27968,,9.694616,-0.925414,-1.102579,0.022823,0.008498,-0.000008,1.010986,-0.424561,-0.017334,-0.298841,-0.630474,0.401934,-0.592996
27969,,9.697145,-0.949272,-1.046749,0.017925,0.007359,-0.000302,1.015625,-0.419922,-0.019775,-0.298719,-0.630564,0.401824,-0.593038
27970,,9.664653,-0.983024,-0.950364,0.001991,0.009798,-0.004965,1.008545,-0.419922,-0.023926,-0.298728,-0.630593,0.401822,-0.593004
27971,,9.738616,-0.982786,-1.017613,-0.011143,0.015553,0.001472,1.015625,-0.422119,-0.023926,-0.298762,-0.630576,0.401850,-0.592985
27972,,9.756921,-0.990960,-0.987358,-0.001453,0.027377,-0.002079,1.008789,-0.424561,-0.017334,-0.298808,-0.630542,0.401841,-0.593004
27973,,9.710455,-1.007003,-1.043654,0.011710,0.031979,-0.002214,1.015381,-0.417725,-0.021973,-0.298783,-0.630538,0.401733,-0.593095
27974,,9.761258,-1.011371,-0.968590,0.010579,0.029108,0.001472,1.008789,-0.422363,-0.021729,-0.298785,-0.630510,0.401696,-0.593148
27975,,9.700920,-0.972843,-0.978816,0.000646,0.030074,0.007072,1.013184,-0.417725,-0.017578,-0.298794,-0.630456,0.401686,-0.593208
27976,,9.688174,-0.982710,-1.033393,0.004711,0.033023,0.008292,1.013184,-0.417725,-0.017578,-0.298802,-0.630394,0.401682,-0.593272
27977,,9.676727,-0.989369,-1.131118,0.010092,0.008585,0.004486,1.012939,-0.415527,-0.017578,-0.298746,-0.630425,0.401664,-0.593280
27978,,9.740542,-0.954968,-1.140120,0.012866,-0.000891,-0.000691,1.010986,-0.422119,-0.019531,-0.298686,-0.630494,0.401659,-0.593240
27979,,9.709615,-0.918352,-1.025142,0.006298,0.001583,0.000858,1.010986,-0.419922,-0.019775,-0.298635,-0.630549,0.401649,-0.593214
27980,,9.742867,-0.978799,-1.085127,-0.003366,-0.002320,0.000723,1.008789,-0.426758,-0.021729,-0.298620,-0.630594,0.401698,-0.593140
27981,,9.766979,-1.031245,-0.988825,-0.005139,0.011651,0.001752,1.015381,-0.417725,-0.019775,-0.298598,-0.630615,0.401687,-0.593137
27982,,9.747738,-1.026152,-0.973191,-0.005510,0.025252,0.000014,1.006348,-0.424561,-0.019531,-0.298647,-0.630578,0.401699,-0.593144
27983,,9.723048,-1.070990,-0.988914,-0.003676,0.028754,-0.001729,1.017822,-0.419922,-0.019775,-0.298675,-0.630551,0.401656,-0.593187
27984,,9.691012,-1.074835,-1.029848,0.008357,0.029672,-0.001494,1.010986,-0.419922,-0.023926,-0.298694,-0.630524,0.401616,-0.593234
27985,,9.744514,-1.072839,-1.038954,0.011023,0.032181,-0.000833,1.008789,-0.424561,-0.021729,-0.298699,-0.630495,0.401548,-0.593308
27986,,9.725372,-1.067892,-1.022201,0.018823,0.023849,0.001407,1.010986,-0.424561,-0.019531,-0.298665,-0.630495,0.401494,-0.593362
27987,,9.751985,-1.020421,-1.043172,0.025549,0.030120,0.006617,1.015625,-0.419922,-0.017578,-0.298559,-0.630502,0.401371,-0.593490
27988,,9.701946,-1.016810,-1.112443,0.018827,0.023853,0.001404,1.008789,-0.422363,-0.019531,-0.298525,-0.630502,0.401317,-0.593544
27989,,9.697039,-0.999674,-1.080829,0.019232,0.018175,-0.000539,1.015381,-0.417725,-0.019775,-0.298455,-0.630539,0.401225,-0.593602
27990,,9.688401,-0.961821,-1.062623,0.020472,0.010687,-0.003403,1.013184,-0.417725,-0.019775,-0.298403,-0.630590,0.401171,-0.593611
27991,,9.688543,-0.961598,-1.061521,0.007040,0.009325,-0.004209,1.013184,-0.419922,-0.017578,-0.298397,-0.630623,0.401149,-0.593594
27992,,9.752908,-1.020927,-1.034001,0.010833,0.016336,-0.000584,1.013184,-0.419922,-0.021973,-0.298378,-0.630637,0.401124,-0.593605
27993,,9.780241,-0.999421,-0.958679,0.010170,0.024449,-0.002893,1.010986,-0.422119,-0.019531,-0.298371,-0.630638,0.401057,-0.593653
27994,,9.755894,-0.976906,-0.912702,0.002625,0.031170,0.002428,1.015381,-0.417480,-0.026367,-0.298399,-0.630590,0.401043,-0.593699
27995,,9.729119,-0.998261,-0.982982,0.001242,0.029099,-0.004787,1.013184,-0.419922,-0.019775,-0.298451,-0.630557,0.401009,-0.593732
27996,,9.728794,-0.971331,-1.077460,0.018143,0.022424,-0.003867,1.010742,-0.417725,-0.013184,-0.298431,-0.630570,0.400943,-0.593772
27997,,9.721524,-0.997892,-1.161965,0.023607,0.025822,-0.002082,1.010986,-0.422119,-0.019531,-0.298377,-0.630589,0.400829,-0.593856
27998,,9.691761,-1.025476,-1.148226,0.015075,0.025602,-0.002593,1.008789,-0.422363,-0.023926,-0.298369,-0.630586,0.400771,-0.593902
27999,,9.719064,-1.003576,-1.072649,0.004723,0.020246,-0.008011,1.017822,-0.419922,-0.015381,-0.298379,-0.630604,0.400707,-0.593921
28000,,9.733628,-0.990754,-1.054881,0.009482,0.023831,-0.004843,1.010986,-0.419922,-0.023926,-0.298392,-0.630603,0.400661,-0.593946
28001,,9.694975,-0.980188,-1.024747,0.005707,0.027194,-0.002188,1.010986,-0.424561,-0.019531,-0.298404,-0.630586,0.400607,-0.593995
28002,,9.683090,-1.015816,-0.982608,0.003473,0.028561,-0.001833,1.010986,-0.422119,-0.019531,-0.298437,-0.630556,0.400582,-0.594027
28003,,9.704428,-1.018027,-1.035873,0.007360,0.025212,0.002626,1.008545,-0.417725,-0.013184,-0.298399,-0.630554,0.400516,-0.594094
28004,,9.730974,-1.037997,-1.118735,0.009023,0.022411,0.004114,1.015625,-0.422119,-0.015381,-0.298384,-0.630538,0.400502,-0.594127
28005,,9.693800,-1.025043,-1.131270,0.009298,0.018349,0.001715,1.010986,-0.422119,-0.021729,-0.298332,-0.630560,0.400437,-0.594174
28006,,9.702958,-0.995639,-1.084643,-0.001912,0.016431,0.003860,1.013428,-0.422119,-0.017334,-0.298340,-0.630546,0.400463,-0.594166
28007,,9.721005,-1.004079,-1.054427,0.005535,0.020896,0.001043,1.008789,-0.422363,-0.017334,-0.298315,-0.630551,0.400415,-0.594207
28008,,9.744444,-0.962297,-0.991617,0.009468,0.025477,0.001805,1.006348,-0.420166,-0.017578,-0.298312,-0.630531,0.400388,-0.594247
28009,,9.726887,-0.954215,-1.016994,0.001547,0.035440,-0.000935,1.010986,-0.424561,-0.019531,-0.298331,-0.630492,0.400321,-0.594325
28010,,9.739819,-0.944739,-0.955916,-0.004044,0.033665,-0.003191,1.013184,-0.419922,-0.021973,-0.298402,-0.630438,0.400306,-0.594356
28011,,9.777229,-0.931332,-1.035319,-0.002252,0.029241,-0.001237,1.013184,-0.419922,-0.017578,-0.298431,-0.630406,0.400270,-0.594400
28012,,9.777512,-0.998849,-1.094113,0.000245,0.024628,-0.000662,1.008545,-0.420166,-0.015381,-0.298462,-0.630380,0.400264,-0.594416
28013,,9.687183,-0.987505,-1.094560,0.003172,0.023895,0.000930,1.013184,-0.417725,-0.019775,-0.298455,-0.630370,0.400221,-0.594460
28014,,9.666199,-0.985346,-1.036522,0.005554,0.020088,-0.002283,1.013184,-0.419922,-0.017578,-0.298466,-0.630368,0.400200,-0.594469
28015,,9.716245,-0.989451,-0.961952,0.010439,0.022054,0.001355,1.010986,-0.419922,-0.017578,-0.298451,-0.630361,0.400161,-0.594511
28016,,9.716544,-0.989449,-0.958927,0.014874,0.037634,-0.003891,1.008545,-0.420166,-0.015381,-0.298472,-0.630325,0.400082,-0.594592
28017,,9.722281,-1.006840,-0.984278,0.004652,0.041854,0.000734,1.010742,-0.417725,-0.017578,-0.298497,-0.630263,0.400009,-0.594694
28018,,9.710264,-1.016034,-1.038096,0.007744,0.037861,-0.003858,1.006348,-0.422363,-0.019531,-0.298541,-0.630215,0.399951,-0.594761
28019,,9.719454,-0.986210,-0.989778,0.009085,0.030373,0.000410,1.018066,-0.424316,-0.015137,-0.298542,-0.630187,0.399895,-0.594828
28020,,9.735668,-0.970997,-1.013789,-0.002991,0.020690,0.000504,1.010986,-0.419922,-0.019775,-0.298573,-0.630165,0.399908,-0.594827
28021,,9.753658,-0.979178,-0.983047,-0.000584,0.026456,0.000240,1.013184,-0.419922,-0.017578,-0.298577,-0.630148,0.399864,-0.594873
28022,,9.716601,-0.992317,-0.897805,0.011064,0.032262,-0.000869,1.008545,-0.420166,-0.015381,-0.298591,-0.630116,0.399813,-0.594934
28023,,9.709772,-0.951518,-0.919984,0.016396,0.037296,0.000463,1.017822,-0.417480,-0.008789,-0.298575,-0.630083,0.399716,-0.595043
28024,,9.738796,-0.968451,-1.043083,0.021600,0.043957,0.001330,1.013184,-0.419922,-0.010986,-0.298572,-0.630027,0.399624,-0.595165
28025,,9.685929,-0.970637,-1.027186,0.018378,0.039188,-0.000819,1.010986,-0.422363,-0.010986,-0.298540,-0.630007,0.399489,-0.595293
28026,,9.723547,-0.984122,-1.008975,0.009352,0.027141,0.001333,1.010986,-0.419922,-0.015381,-0.298542,-0.629983,0.399459,-0.595337
28027,,9.713147,-1.017046,-1.009739,-0.003868,0.013753,0.001786,1.018066,-0.424316,-0.015137,-0.298519,-0.630000,0.399439,-0.595344
28028,,9.745119,-1.013219,-0.963927,-0.000084,0.020788,0.005412,1.008545,-0.415527,-0.009033,-0.298526,-0.629973,0.399459,-0.595356
28029,,9.730854,-0.958136,-0.916151,-0.003822,0.022516,0.001399,1.010742,-0.417725,-0.010986,-0.298527,-0.629962,0.399429,-0.595387
28030,,9.731067,-0.958118,-0.913906,0.004605,0.023550,-0.001847,1.006348,-0.420166,-0.015381,-0.298547,-0.629948,0.399407,-0.595407
28031,,9.754746,-0.957213,-1.009299,0.028704,0.024595,-0.004568,1.015381,-0.417725,-0.008789,-0.298480,-0.629982,0.399275,-0.595493
28032,,9.724863,-0.984523,-0.995817,0.016539,0.025291,-0.005338,1.008545,-0.420166,-0.008789,-0.298476,-0.629988,0.399204,-0.595536
28033,,9.700454,-1.029323,-1.011591,0.017227,0.025927,-0.003394,1.010986,-0.424561,-0.015137,-0.298425,-0.630013,0.399082,-0.595617
28034,,9.723462,-0.987070,-0.948701,0.014947,0.018533,-0.002662,1.013428,-0.422119,-0.017334,-0.298404,-0.630031,0.399035,-0.595640
28035,,9.725250,-1.010470,-0.891448,0.019569,0.023760,0.000051,1.013428,-0.424561,-0.010742,-0.298331,-0.630056,0.398927,-0.595722
28036,,9.705864,-1.005370,-0.875329,0.016648,0.024495,-0.001552,1.008789,-0.422363,-0.008789,-0.298314,-0.630057,0.398869,-0.595769
28037,,9.722153,-0.990277,-0.899379,0.006110,0.023204,0.002497,1.011230,-0.424561,-0.008545,-0.298243,-0.630080,0.398773,-0.595844
28038,,9.770618,-1.038881,-0.940380,0.012992,0.026242,0.001545,1.010742,-0.417725,-0.017578,-0.298231,-0.630063,0.398734,-0.595894
28039,,9.719042,-0.970383,-0.907265,0.013960,0.022804,0.001102,1.020264,-0.422119,-0.008789,-0.298176,-0.630079,0.398650,-0.595961
28040,,9.740830,-0.973147,-0.960755,0.006341,0.020780,0.006753,1.012939,-0.415527,-0.017578,-0.298159,-0.630059,0.398655,-0.595988
28041,,9.716322,-1.018662,-0.977043,0.009060,0.021654,0.000774,1.015381,-0.417725,-0.010986,-0.298139,-0.630058,0.398606,-0.596031
28042,,9.705940,-0.957704,-1.013989,0.007589,0.013265,0.003924,1.015625,-0.424316,-0.012939,-0.298111,-0.630068,0.398610,-0.596032
28043,,9.755370,-0.961800,-0.939501,0.019987,0.018070,-0.001867,1.010742,-0.417725,-0.013184,-0.298035,-0.630114,0.398501,-0.596094
28044,,9.712760,-0.930977,-0.923709,0.019812,0.010930,-0.001939,1.006348,-0.420166,-0.010986,-0.297981,-0.630161,0.398453,-0.596104
28045,,9.721949,-0.968672,-0.938819,0.001931,0.011454,-0.005467,1.010742,-0.413330,-0.011230,-0.297976,-0.630196,0.398418,-0.596093
28046,,9.776943,-0.989526,-0.893748,-0.007140,0.018552,-0.004576,1.013184,-0.417725,-0.013184,-0.298030,-0.630184,0.398430,-0.596069
28047,,9.763120,-1.001441,-0.907107,-0.010878,0.030694,-0.002349,1.013184,-0.419922,-0.010986,-0.298123,-0.630120,0.398442,-0.596084
28048,,9.719113,-1.041112,-0.909229,-0.007830,0.028338,-0.000275,1.010986,-0.419922,-0.017578,-0.298186,-0.630070,0.398455,-0.596096
28049,,9.687690,-1.045441,-0.951180,-0.004402,0.021101,0.003206,1.015381,-0.417725,-0.013184,-0.298197,-0.630048,0.398454,-0.596115
28050,,9.695514,-1.060331,-1.020699,0.002306,0.016998,0.002189,1.010742,-0.415527,-0.017578,-0.298198,-0.630042,0.398462,-0.596115
28051,,9.758103,-1.096697,-1.046540,0.010001,0.019047,0.003659,1.010742,-0.417725,-0.010986,-0.298191,-0.630026,0.398457,-0.596139
28052,,9.699303,-1.081478,-1.004125,0.015187,0.016123,0.001605,1.010742,-0.417725,-0.013184,-0.298152,-0.630043,0.398426,-0.596161
28053,,9.726134,-1.033938,-1.026524,0.023797,0.005959,0.003036,1.010742,-0.415527,-0.006836,-0.298052,-0.630103,0.398370,-0.596185
28054,,9.734635,-1.004459,-0.980869,0.021719,0.004876,0.000520,1.013428,-0.422119,-0.015137,-0.297973,-0.630166,0.398333,-0.596183
28055,,9.741678,-1.045476,-0.954013,0.024846,0.010465,-0.001127,1.006104,-0.417969,-0.013184,-0.297877,-0.630232,0.398238,-0.596224
28056,,9.730600,-1.010425,-0.894292,0.017582,0.012307,-0.001592,1.008545,-0.420166,-0.013184,-0.297832,-0.630271,0.398196,-0.596234
28057,,9.690079,-0.976953,-0.920526,0.028375,0.020775,0.001553,1.017822,-0.419922,-0.010986,-0.297745,-0.630300,0.398095,-0.596314
28058,,9.706433,-0.962037,-0.944914,0.027263,0.016248,-0.001400,1.006348,-0.420166,-0.008789,-0.297677,-0.630340,0.398019,-0.596356
28059,,9.729743,-0.987752,-0.943582,0.023632,0.017170,-0.001634,1.010986,-0.419922,-0.008789,-0.297584,-0.630395,0.397900,-0.596423
28060,,9.755203,-1.010627,-0.984394,0.020126,0.016464,-0.001397,1.013184,-0.419922,-0.010986,-0.297539,-0.630425,0.397845,-0.596452
28061,,9.758844,-1.031109,-0.969636,0.012273,0.016866,-0.000018,1.010986,-0.422363,-0.008789,-0.297478,-0.630459,0.397767,-0.596497
28062,,9.716175,-1.000381,-0.954112,0.013366,0.011796,0.000019,1.013428,-0.422119,-0.015137,-0.297441,-0.630490,0.397743,-0.596500
28063,,9.743024,-0.952520,-0.977038,0.012632,0.002384,-0.001518,1.015625,-0.422119,-0.010986,-0.297346,-0.630576,0.397674,-0.596502
28064,,9.754923,-0.942998,-0.918885,0.015551,0.001656,0.000092,1.010986,-0.419922,-0.015381,-0.297281,-0.630640,0.397658,-0.596477
28065,,9.772496,-0.951193,-0.889295,0.016034,0.014324,0.000684,1.013184,-0.417725,-0.010986,-0.297208,-0.630682,0.397584,-0.596519
28066,,9.735494,-0.937866,-0.902689,0.014167,0.019553,-0.005094,1.013184,-0.419922,-0.010986,-0.297198,-0.630700,0.397530,-0.596540
28067,,9.723860,-0.947310,-0.958402,0.009787,0.021493,-0.000632,1.013184,-0.419922,-0.008789,-0.297171,-0.630710,0.397466,-0.596587
28068,,9.734637,-0.914406,-0.953716,-0.000701,0.018537,-0.003244,1.013184,-0.419922,-0.013184,-0.297201,-0.630706,0.397463,-0.596578
28069,,9.743956,-0.952146,-0.968067,-0.007160,0.019387,-0.001299,1.010986,-0.419922,-0.006592,-0.297215,-0.630703,0.397441,-0.596588
28070,,9.765094,-0.980061,-0.924807,-0.018329,0.015791,-0.005859,1.012939,-0.415527,-0.013184,-0.297303,-0.630687,0.397487,-0.596531
28071,,9.733805,-0.983858,-0.967672,-0.022835,0.019359,-0.001871,1.015625,-0.419922,-0.010986,-0.297380,-0.630655,0.397522,-0.596503
28072,,9.717840,-0.998305,-0.939208,-0.015572,0.026269,-0.008925,1.006348,-0.420166,-0.010986,-0.297489,-0.630617,0.397535,-0.596480
28073,,9.716740,-1.068404,-0.955505,-0.001486,0.029138,-0.002748,1.006104,-0.417969,-0.008789,-0.297505,-0.630599,0.397473,-0.596532
28074,,9.707900,-1.030060,-0.936639,0.020936,0.024238,-0.006492,1.010986,-0.419922,-0.015381,-0.297488,-0.630616,0.397387,-0.596580
28075,,9.730058,-1.032358,-0.990286,0.019112,0.011148,-0.000538,1.008545,-0.420166,-0.008789,-0.297411,-0.630669,0.397315,-0.596611
28076,,9.711506,-1.001404,-1.073116,0.010236,0.006214,0.001677,1.015625,-0.419922,-0.017578,-0.297367,-0.630708,0.397314,-0.596592
28077,,9.723309,-0.992076,-1.014399,0.003525,0.010319,0.002674,1.015381,-0.417725,-0.008789,-0.297325,-0.630736,0.397295,-0.596596
28078,,9.735134,-0.982636,-0.955466,-0.003024,0.011965,0.000821,1.008545,-0.420166,-0.013184,-0.297337,-0.630739,0.397322,-0.596568
28079,,9.722687,-0.924218,-0.950843,-0.020757,0.020453,0.000627,1.010986,-0.419922,-0.017578,-0.297395,-0.630707,0.397351,-0.596554
28080,,9.737767,-0.979724,-0.994155,-0.026071,0.025010,0.002193,1.015381,-0.415283,-0.013428,-0.297502,-0.630635,0.397432,-0.596524
28081,,9.696290,-0.972076,-0.922764,-0.016388,0.028959,0.002398,1.008545,-0.420166,-0.008789,-0.297593,-0.630558,0.397478,-0.596529
28082,,9.690528,-0.999317,-1.007769,-0.018984,0.016025,0.002610,1.008789,-0.422363,-0.017334,-0.297658,-0.630522,0.397553,-0.596484
28083,,9.738108,-1.024777,-1.104721,-0.012187,0.011120,0.005409,1.013184,-0.417725,-0.013184,-0.297645,-0.630526,0.397576,-0.596471
28084,,9.694149,-1.020251,-0.992365,-0.012684,0.017635,0.003522,1.013184,-0.419922,-0.010986,-0.297691,-0.630493,0.397632,-0.596445
28085,,9.660501,-1.027651,-0.993918,-0.009289,0.000781,0.004113,1.017822,-0.419922,-0.010986,-0.297670,-0.630526,0.397673,-0.596394
28086,,9.687275,-0.980152,-1.017895,0.006328,-0.007975,0.005118,1.008545,-0.420166,-0.015381,-0.297600,-0.630595,0.397715,-0.596328
28087,,9.757058,-0.918886,-0.939863,-0.003048,-0.006394,0.005438,1.015381,-0.415283,-0.017578,-0.297534,-0.630659,0.397746,-0.596272
28088,,9.763892,-0.959776,-0.913924,-0.011268,0.007646,-0.002137,1.013184,-0.417725,-0.017578,-0.297573,-0.630669,0.397795,-0.596210
28089,,9.777847,-0.991901,-1.012994,-0.010226,0.022592,-0.000068,1.010986,-0.422363,-0.015137,-0.297656,-0.630614,0.397843,-0.596194
28090,,9.719991,-0.999433,-0.915456,-0.009671,0.024862,0.001407,1.008789,-0.422363,-0.015137,-0.297713,-0.630569,0.397873,-0.596194
28091,,9.720204,-0.999481,-0.913136,-0.009670,0.024863,0.001406,1.008789,-0.424561,-0.012939,-0.297729,-0.630545,0.397853,-0.596224
28092,,9.733273,-0.964123,-0.950540,-0.004023,0.016248,0.004577,1.015625,-0.422119,-0.010986,-0.297741,-0.630527,0.397889,-0.596213
28093,,9.735741,-0.961731,-0.991099,0.003116,0.016036,0.004591,1.010986,-0.422363,-0.013184,-0.297665,-0.630559,0.397826,-0.596259
28094,,9.729040,-0.921508,-1.015428,0.021025,0.014690,0.004863,1.010986,-0.422363,-0.013184,-0.297595,-0.630583,0.397790,-0.596293
28095,,9.746479,-0.930137,-0.985451,0.020165,0.006898,0.002854,1.013428,-0.422119,-0.010986,-0.297468,-0.630660,0.397702,-0.596333
28096,,9.745496,-0.907469,-1.039622,0.005724,0.009781,0.005673,1.008789,-0.424561,-0.012939,-0.297434,-0.630674,0.397722,-0.596323
28097,,9.726882,-0.925597,-0.970028,0.002643,0.012112,-0.003531,1.015625,-0.424316,-0.010742,-0.297376,-0.630732,0.397641,-0.596343
28098,,9.674665,-0.995042,-1.018263,0.000220,0.025526,-0.004559,1.010986,-0.419922,-0.017578,-0.297421,-0.630711,0.397622,-0.596356
28099,,9.718849,-1.048663,-0.974456,0.005965,0.024866,-0.005116,1.018066,-0.424316,-0.012939,-0.297406,-0.630726,0.397531,-0.596409
28100,,9.723531,-1.091941,-0.903633,0.009187,0.029665,-0.002967,1.008545,-0.420166,-0.013184,-0.297426,-0.630703,0.397483,-0.596455
28101,,9.706413,-1.083920,-0.930061,0.008060,0.016372,0.001611,1.018066,-0.422119,-0.006592,-0.297360,-0.630737,0.397413,-0.596499
28102,,9.747404,-1.023930,-0.936219,-0.001910,0.016515,0.003765,1.013184,-0.417725,-0.008789,-0.297369,-0.630723,0.397439,-0.596492
28103,,9.752411,-1.018848,-1.018435,0.007486,0.024552,0.006364,1.011230,-0.426758,-0.001953,-0.297300,-0.630728,0.397361,-0.596572
28104,,9.734192,-0.943533,-0.983780,0.019817,0.021411,0.004355,1.010742,-0.417725,-0.013184,-0.297248,-0.630731,0.397318,-0.596625
28105,,9.721698,-0.885774,-0.979255,0.012554,0.004047,0.005165,1.010986,-0.424561,-0.015137,-0.297105,-0.630819,0.397232,-0.596660
28106,,9.747082,-0.864484,-0.905371,-0.003471,-0.000677,0.007340,1.010742,-0.415527,-0.017578,-0.297074,-0.630847,0.397299,-0.596600
28107,,9.741235,-0.847309,-0.876099,-0.018917,0.005626,0.003459,1.015625,-0.422119,-0.008789,-0.297106,-0.630844,0.397375,-0.596537
28108,,9.735479,-0.829844,-0.846066,-0.024720,0.016708,0.003122,1.006348,-0.420166,-0.015381,-0.297189,-0.630797,0.397467,-0.596484
28109,,9.726580,-0.836702,-0.944714,-0.015344,0.015126,0.002817,1.015381,-0.417725,-0.006592,-0.297196,-0.630794,0.397477,-0.596477
28110,,9.759058,-0.900409,-0.959613,-0.014316,0.020466,0.001974,1.008545,-0.420166,-0.017578,-0.297258,-0.630754,0.397529,-0.596455
28111,,9.811378,-0.969177,-0.987297,-0.021943,0.027202,0.000060,1.008545,-0.420166,-0.006592,-0.297338,-0.630699,0.397552,-0.596458
28112,,9.779120,-1.043765,-1.048296,-0.027886,0.030300,-0.003657,1.008545,-0.420166,-0.017578,-0.297478,-0.630620,0.397612,-0.596431
28113,,9.698971,-1.092928,-1.011828,-0.021364,0.019028,-0.004697,1.013428,-0.422119,-0.013184,-0.297542,-0.630606,0.397619,-0.596409
28114,,9.676894,-1.089995,-0.954979,-0.013858,0.013923,-0.003254,1.015381,-0.417725,-0.015381,-0.297604,-0.630596,0.397663,-0.596359
28115,,9.708205,-1.085348,-0.909464,-0.005512,0.006997,-0.002713,1.018066,-0.426514,-0.012939,-0.297602,-0.630630,0.397660,-0.596326
28116,,9.722209,-1.072981,-0.892681,0.006914,0.012667,0.001995,1.010742,-0.417725,-0.008789,-0.297581,-0.630645,0.397660,-0.596321
28117,,9.693695,-1.074810,-0.977534,0.019695,0.023041,0.003914,1.015625,-0.419922,-0.010986,-0.297470,-0.630681,0.397535,-0.596421
28118,,9.651333,-1.089473,-1.077493,0.036716,0.024343,0.008443,1.006348,-0.420166,-0.010986,-0.297359,-0.630692,0.397449,-0.596523
28119,,9.690275,-1.077883,-1.156598,0.039797,0.021155,0.007216,1.015625,-0.419922,-0.008789,-0.297193,-0.630744,0.397301,-0.596650
28120,,9.673987,-1.094170,-1.127851,0.044150,0.020048,0.006093,1.010742,-0.417725,-0.015381,-0.297057,-0.630783,0.397192,-0.596748
28121,,9.695943,-1.052996,-1.065566,0.041903,0.002206,0.007724,1.010986,-0.422363,-0.013184,-0.296866,-0.630880,0.397089,-0.596809
28122,,9.730911,-0.976317,-1.043626,0.046378,-0.000532,0.007074,1.010742,-0.417725,-0.013184,-0.296679,-0.630982,0.397007,-0.596848
28123,,9.744284,-0.920030,-0.911668,0.036861,-0.006940,0.003993,1.013428,-0.424561,-0.010742,-0.296494,-0.631108,0.396919,-0.596866
28124,,9.774925,-0.871397,-0.750966,0.017024,0.001311,0.004529,1.010986,-0.422363,-0.013184,-0.296410,-0.631166,0.396914,-0.596849
28125,,9.762396,-0.813554,-0.747075,-0.002502,0.015093,0.005590,1.013184,-0.417725,-0.010986,-0.296349,-0.631190,0.396874,-0.596882
28126,,9.772177,-0.897075,-0.877240,0.003866,0.025499,0.006093,1.008545,-0.419922,-0.021729,-0.296350,-0.631153,0.396878,-0.596918
28127,,9.753039,-0.937273,-0.977573,0.014685,0.023533,0.003056,1.013184,-0.419922,-0.010986,-0.296328,-0.631137,0.396841,-0.596969
28128,,9.725404,-0.962449,-1.007260,0.009711,0.013580,0.003127,1.010742,-0.417725,-0.010986,-0.296297,-0.631151,0.396835,-0.596975
28129,,9.754508,-1.006224,-1.035338,0.007838,0.010061,0.004873,1.012939,-0.415527,-0.011230,-0.296236,-0.631180,0.396811,-0.596989
28130,,9.743474,-0.994293,-0.921089,0.003701,0.007874,-0.000173,1.010986,-0.422363,-0.013184,-0.296222,-0.631209,0.396821,-0.596960
28131,,9.713196,-1.021817,-0.909458,0.007523,0.014118,0.000129,1.013184,-0.419922,-0.013184,-0.296191,-0.631231,0.396784,-0.596976
28132,,9.752964,-1.032524,-0.934134,0.016251,0.021524,0.000785,1.015625,-0.422119,-0.010986,-0.296161,-0.631235,0.396739,-0.597016
28133,,9.772981,-1.038157,-0.944819,0.017237,0.027704,0.003254,1.010742,-0.417725,-0.006592,-0.296096,-0.631239,0.396641,-0.597110
28134,,9.705836,-1.052856,-0.946945,0.024260,0.029127,0.002812,1.011230,-0.426758,-0.015137,-0.296050,-0.631228,0.396567,-0.597193
28135,,9.699431,-1.012646,-0.970519,0.022915,0.018250,0.003141,1.013428,-0.422119,-0.013184,-0.295931,-0.631278,0.396449,-0.597278
28136,,9.732577,-0.983168,-1.021418,0.024791,0.012181,0.005619,1.013184,-0.417725,-0.008789,-0.295842,-0.631313,0.396408,-0.597312
28137,,9.701572,-0.988332,-1.065085,0.021810,0.004112,0.004423,1.008545,-0.420166,-0.010986,-0.295721,-0.631386,0.396343,-0.597338
28138,,9.695639,-0.971100,-1.035496,0.020465,0.002824,0.000528,1.015625,-0.419922,-0.004395,-0.295641,-0.631453,0.396313,-0.597327
28139,,9.751791,-0.944714,-0.916629,0.013323,0.003035,0.000491,1.008789,-0.426758,-0.010742,-0.295537,-0.631537,0.396240,-0.597338
28140,,9.726093,-0.921930,-0.873382,0.002454,0.015432,0.002605,1.013428,-0.424561,-0.015137,-0.295533,-0.631535,0.396252,-0.597334
28141,,9.715664,-0.954902,-0.874184,0.001133,0.023779,0.001593,1.010986,-0.422363,-0.017334,-0.295478,-0.631552,0.396166,-0.597401
28142,,9.735063,-0.937504,-0.940278,-0.000311,0.024167,0.004335,1.004150,-0.422363,-0.008789,-0.295495,-0.631516,0.396178,-0.597422
28143,,9.709455,-1.053902,-0.975285,-0.003702,0.021827,0.005030,1.010986,-0.419922,-0.006592,-0.295475,-0.631504,0.396156,-0.597460
28144,,9.701061,-1.061667,-1.073833,0.006513,0.008829,0.008088,1.006592,-0.424561,-0.012939,-0.295429,-0.631517,0.396182,-0.597451
28145,,9.757860,-1.081042,-1.070518,0.001608,0.007667,0.007730,1.013184,-0.419922,-0.008789,-0.295339,-0.631561,0.396154,-0.597468
28146,,9.701607,-1.086140,-1.017411,0.012237,-0.001472,0.004670,1.006104,-0.417969,-0.017578,-0.295265,-0.631620,0.396167,-0.597433
28147,,9.717299,-1.026629,-0.927854,0.007399,-0.003425,0.008107,1.008545,-0.420166,-0.008789,-0.295187,-0.631671,0.396195,-0.597399
28148,,9.728382,-1.017541,-0.870030,0.002858,0.000112,0.004948,1.006348,-0.422363,-0.010742,-0.295145,-0.631711,0.396235,-0.597351
28149,,9.762080,-1.010849,-0.866897,0.020782,0.008362,0.001052,1.010986,-0.419922,-0.008789,-0.295025,-0.631788,0.396137,-0.597394
28150,,9.758898,-0.990889,-0.878585,0.027399,0.015516,0.002501,1.010986,-0.424561,-0.010742,-0.294943,-0.631823,0.396073,-0.597440
28151,,9.734036,-1.013660,-0.950129,0.024637,0.024255,0.004225,1.015381,-0.417725,-0.010986,-0.294824,-0.631858,0.395939,-0.597550
28152,,9.700000,-0.998534,-1.005247,0.025192,0.026535,0.005693,1.011230,-0.428955,-0.012939,-0.294761,-0.631851,0.395876,-0.597631
28153,,9.722707,-1.002184,-1.058339,0.023235,0.014217,0.007885,1.010986,-0.419922,-0.008789,-0.294620,-0.631904,0.395778,-0.597709
28154,,9.695598,-1.050810,-1.033172,0.026919,0.012457,0.004827,1.008545,-0.420166,-0.010986,-0.294526,-0.631943,0.395727,-0.597748
28155,,9.731241,-0.996533,-0.955154,0.028196,0.014543,0.004923,1.018066,-0.424316,-0.008545,-0.294402,-0.631994,0.395628,-0.597821
28156,,9.674523,-0.978555,-0.956446,0.020184,0.006935,0.002901,1.006348,-0.420166,-0.013184,-0.294325,-0.632043,0.395600,-0.597826
28157,,9.741897,-0.965026,-0.950627,0.014185,0.001269,0.006720,1.015625,-0.422119,-0.015381,-0.294198,-0.632118,0.395552,-0.597840
28158,,9.749729,-0.935429,-0.905430,0.009646,0.004803,0.003554,1.010986,-0.422363,-0.010986,-0.294148,-0.632157,0.395561,-0.597818
28159,,9.735909,-0.948349,-0.920432,0.013594,0.009424,0.004324,1.008789,-0.422363,-0.012939,-0.294060,-0.632204,0.395511,-0.597845
28160,,9.724817,-0.958847,-0.977756,0.005646,0.001026,0.006101,1.006348,-0.420166,-0.008789,-0.294007,-0.632243,0.395545,-0.597807
28161,,9.751138,-1.005364,-0.964149,0.007292,0.007807,0.003390,1.015625,-0.422119,-0.006592,-0.293934,-0.632289,0.395508,-0.597818
28162,,9.763213,-1.041455,-1.020821,0.005926,0.017001,0.005680,1.008789,-0.424561,-0.010742,-0.293914,-0.632282,0.395517,-0.597830
28163,,9.743519,-1.036471,-1.005793,0.007861,0.019677,0.000610,1.008545,-0.417725,-0.004395,-0.293837,-0.632321,0.395415,-0.597894
28164,,9.678146,-1.002760,-0.935314,0.015007,0.019470,0.000654,1.008545,-0.420166,-0.015381,-0.293808,-0.632329,0.395376,-0.597925
28165,,9.701368,-1.028673,-0.933601,0.016203,0.012752,0.001202,1.015625,-0.424316,-0.012939,-0.293743,-0.632367,0.395318,-0.597956
28166,,9.715271,-1.016596,-0.916704,0.016674,0.006229,0.003121,1.008789,-0.422363,-0.015137,-0.293674,-0.632412,0.395302,-0.597952
28167,,9.724509,-1.055311,-0.931900,0.008316,0.003567,0.006775,1.024902,-0.419678,-0.006592,-0.293579,-0.632467,0.395279,-0.597956
28168,,9.718007,-1.015587,-0.957802,0.004749,0.003702,0.010308,1.008789,-0.422363,-0.012939,-0.293522,-0.632488,0.395325,-0.597931
28169,,9.694873,-0.990927,-0.957328,0.004632,0.005333,0.009828,1.008789,-0.426758,-0.012939,-0.293433,-0.632528,0.395316,-0.597940
28170,,9.741898,-0.949519,-0.994085,0.008233,-0.005236,0.007229,1.006592,-0.424561,-0.006348,-0.293356,-0.632587,0.395354,-0.597889
28171,,9.738596,-0.930135,-1.007208,0.002514,0.005076,0.010621,1.015625,-0.419922,-0.010986,-0.293219,-0.632652,0.395305,-0.597919
28172,,9.725155,-0.966181,-0.967120,0.000937,0.007039,0.005768,1.013428,-0.422119,-0.010986,-0.293195,-0.632667,0.395343,-0.597891
28173,,9.728388,-0.986890,-0.953352,-0.002524,0.005482,0.002669,1.015625,-0.424316,-0.012939,-0.293157,-0.632705,0.395341,-0.597871
28174,,9.768136,-0.997799,-0.979117,-0.005431,0.006206,0.001036,1.010986,-0.424561,-0.012939,-0.293165,-0.632722,0.395384,-0.597820
28175,,9.737725,-1.025123,-0.967931,-0.012810,0.009677,0.000029,1.013428,-0.422119,-0.010986,-0.293150,-0.632753,0.395373,-0.597802
28176,,9.716169,-1.067714,-1.027671,-0.017165,0.010795,0.001135,1.008789,-0.422363,-0.010986,-0.293203,-0.632739,0.395445,-0.597743
28177,,9.753167,-1.080948,-1.010945,-0.010020,0.010586,0.001182,1.013428,-0.424561,-0.010742,-0.293187,-0.632763,0.395437,-0.597730
28178,,9.712102,-1.141379,-1.002283,-0.003418,0.008155,0.006875,1.013428,-0.424561,-0.015137,-0.293175,-0.632766,0.395490,-0.597698
28179,,9.683022,-1.098379,-0.972652,-0.005484,0.007053,0.004352,1.015381,-0.417725,-0.015381,-0.293115,-0.632810,0.395470,-0.597695
28180,,9.725975,-1.129902,-0.984983,-0.001416,0.010044,0.005603,1.013184,-0.417725,-0.010986,-0.293103,-0.632812,0.395510,-0.597671
28181,,9.722469,-1.087404,-1.052125,0.018945,0.014502,0.005679,1.015869,-0.426758,-0.012939,-0.293051,-0.632821,0.395486,-0.597703
28182,,9.716163,-1.047504,-1.076925,0.031287,0.011348,0.003733,1.013184,-0.419922,-0.013184,-0.292945,-0.632871,0.395421,-0.597745
28183,,9.710171,-1.030376,-1.046898,0.031084,0.004175,0.003707,1.013428,-0.422119,-0.013184,-0.292780,-0.632969,0.395308,-0.597797
28184,,9.728614,-0.967731,-0.998979,0.010544,0.002132,-0.000647,1.015625,-0.424316,-0.015137,-0.292734,-0.633026,0.395304,-0.597762
28185,,9.718057,-1.000252,-1.001084,0.006618,0.007099,-0.005670,1.013184,-0.419922,-0.013184,-0.292688,-0.633092,0.395240,-0.597757
28186,,9.715351,-1.002459,-0.957814,0.006043,0.015319,-0.000961,1.010986,-0.419922,-0.010986,-0.292683,-0.633103,0.395230,-0.597755
28187,,9.710873,-1.052987,-0.988351,0.006797,0.004684,-0.001392,1.003906,-0.415771,-0.010986,-0.292640,-0.633156,0.395203,-0.597737
28188,,9.724804,-1.040530,-0.971467,0.013189,0.015111,-0.000912,1.010986,-0.424561,-0.017334,-0.292613,-0.633178,0.395171,-0.597749
28189,,9.734193,-1.078911,-0.985480,0.012294,0.017788,0.003291,1.013428,-0.424561,-0.006348,-0.292572,-0.633184,0.395135,-0.597785
28190,,9.735387,-0.985807,-1.020688,0.019673,0.014318,0.004304,1.001465,-0.413574,-0.015381,-0.292506,-0.633208,0.395102,-0.597815
28191,,9.721665,-0.998936,-1.034966,0.021185,0.013142,0.005362,1.018066,-0.424316,-0.008545,-0.292415,-0.633242,0.395043,-0.597862
28192,,9.729489,-0.969179,-0.988999,0.018683,0.008123,0.001855,1.008789,-0.422363,-0.015137,-0.292348,-0.633287,0.395014,-0.597866
28193,,9.723486,-0.951493,-0.959297,-0.003310,0.006466,0.000234,1.010986,-0.422363,-0.010986,-0.292299,-0.633340,0.394981,-0.597856
28194,,9.715828,-0.981686,-1.003279,-0.008568,0.010194,-0.001574,1.006592,-0.424561,-0.008545,-0.292332,-0.633346,0.395020,-0.597808
28195,,9.732692,-0.966572,-1.028268,-0.004846,0.018083,-0.001769,1.020508,-0.426514,-0.010742,-0.292300,-0.633375,0.394952,-0.597838
28196,,9.728657,-1.039691,-1.002325,-0.003361,0.027348,-0.001654,1.001709,-0.422607,-0.010742,-0.292351,-0.633338,0.394949,-0.597854
28197,,9.735058,-1.057239,-1.028518,-0.000629,0.029042,-0.004297,1.013184,-0.419922,-0.013184,-0.292328,-0.633350,0.394838,-0.597926
28198,,9.727923,-1.109946,-1.015204,0.010265,0.026284,-0.003492,1.010986,-0.422363,-0.010986,-0.292339,-0.633339,0.394790,-0.597963
28199,,9.744917,-1.095068,-1.038955,0.014070,0.022951,0.001056,1.010986,-0.424561,-0.015137,-0.292289,-0.633351,0.394709,-0.598029
28200,,9.745169,-1.095342,-1.036292,0.014393,0.028501,0.001555,1.009033,-0.429199,-0.008545,-0.292276,-0.633330,0.394662,-0.598088
28201,,9.716192,-1.052313,-1.005095,0.017991,0.017990,0.006086,1.008545,-0.417725,-0.008789,-0.292124,-0.633392,0.394527,-0.598186
28202,,9.720839,-1.002345,-0.971541,0.014972,0.020345,0.003964,1.010986,-0.424561,-0.010742,-0.292086,-0.633391,0.394498,-0.598225
28203,,9.708533,-0.944216,-0.967537,0.008634,0.009061,0.000171,1.008789,-0.422363,-0.006592,-0.292017,-0.633446,0.394439,-0.598240
28204,,9.740813,-0.985564,-1.037057,0.008115,0.016440,0.001554,1.011230,-0.426758,-0.015137,-0.292000,-0.633451,0.394428,-0.598249
28205,,9.701144,-0.974925,-1.009365,0.014710,0.013949,0.000150,1.010986,-0.419922,-0.015381,-0.291890,-0.633519,0.394312,-0.598308
28206,,9.734966,-0.967890,-1.005238,-0.000137,0.012078,-0.001434,1.008789,-0.422363,-0.015137,-0.291900,-0.633531,0.394323,-0.598282
28207,,9.730626,-1.018359,-1.035487,-0.000251,0.013710,-0.001918,1.017822,-0.419922,-0.010986,-0.291908,-0.633541,0.394317,-0.598272
28208,,9.707859,-1.015232,-0.979019,-0.003100,0.013651,0.000240,1.006592,-0.424561,-0.012939,-0.291926,-0.633541,0.394340,-0.598249
28209,,9.721779,-1.002673,-0.961747,-0.010476,0.017124,-0.000789,1.010986,-0.422363,-0.010986,-0.291936,-0.633545,0.394324,-0.598250
28210,,9.737377,-1.058874,-1.004604,-0.001328,0.018877,0.005113,1.010986,-0.424561,-0.012939,-0.291944,-0.633522,0.394350,-0.598253
28211,,9.717755,-1.076218,-0.934312,-0.005066,0.021361,-0.002755,1.010986,-0.424561,-0.010742,-0.291937,-0.633534,0.394292,-0.598283
28212,,9.714822,-1.055834,-0.945576,-0.007134,0.020323,0.001830,1.008545,-0.420166,-0.013184,-0.291976,-0.633505,0.394322,-0.598274
28213,,9.718009,-1.053690,-0.985910,-0.000485,0.017049,0.004228,1.008789,-0.426758,-0.010742,-0.291937,-0.633514,0.394291,-0.598303
28214,,9.688789,-0.987796,-1.011291,0.003664,0.008748,0.003120,1.008789,-0.424561,-0.012939,-0.291915,-0.633533,0.394310,-0.598281
28215,,9.731872,-1.019130,-1.022939,0.007566,0.014161,0.000095,1.008789,-0.422363,-0.010986,-0.291820,-0.633595,0.394208,-0.598330
28216,,9.742627,-0.986426,-1.019045,0.012881,0.009580,-0.001399,1.008789,-0.422363,-0.015137,-0.291783,-0.633634,0.394184,-0.598323
28217,,9.706068,-0.995757,-0.978117,0.014872,0.021921,-0.003624,1.013184,-0.419922,-0.017578,-0.291736,-0.633662,0.394083,-0.598382
28218,,9.753725,-0.976151,-0.957155,0.004146,0.022268,-0.000170,1.008789,-0.422363,-0.012939,-0.291749,-0.633648,0.394070,-0.598399
28219,,9.749539,-1.026660,-0.986375,-0.000263,0.024169,-0.002877,1.015625,-0.424316,-0.015137,-0.291780,-0.633628,0.394045,-0.598422
28220,,9.723625,-0.980460,-0.997545,0.001245,0.022993,-0.001814,1.013428,-0.422119,-0.013184,-0.291808,-0.633611,0.394034,-0.598433
28221,,9.730077,-1.020789,-0.969065,-0.008462,0.019023,-0.002077,1.015381,-0.417725,-0.015381,-0.291823,-0.633612,0.394010,-0.598440
28222,,9.713433,-1.012751,-0.996460,-0.012707,0.018509,-0.000503,1.006592,-0.426758,-0.017334,-0.291883,-0.633585,0.394052,-0.598412
28223,,9.689256,-1.057870,-1.013451,-0.011085,0.015699,0.001044,1.011230,-0.426758,-0.010742,-0.291914,-0.633571,0.394079,-0.598394
28224,,9.720026,-1.030455,-1.021960,0.001248,0.022997,-0.001812,1.010986,-0.422363,-0.015137,-0.291942,-0.633554,0.394068,-0.598406
28225,,9.695871,-1.098176,-0.983324,0.003274,0.014435,-0.002127,1.013428,-0.424561,-0.010742,-0.291886,-0.633601,0.393990,-0.598434
28226,,9.712910,-1.060599,-1.063484,0.015559,0.012130,-0.000712,1.010742,-0.417725,-0.013184,-0.291844,-0.633635,0.393956,-0.598441
28227,,9.720534,-1.030318,-1.017258,0.018963,0.014479,-0.001401,1.015625,-0.419922,-0.006592,-0.291769,-0.633684,0.393866,-0.598485
28228,,9.700752,-1.024927,-1.002549,0.010860,0.018151,-0.001077,1.001709,-0.420166,-0.010986,-0.291755,-0.633694,0.393837,-0.598501
28229,,9.748296,-1.005442,-0.982130,0.009806,0.012796,-0.000206,1.013428,-0.422119,-0.013184,-0.291694,-0.633737,0.393771,-0.598528
28230,,9.778965,-1.000695,-0.935576,0.006680,0.016785,-0.002821,1.006348,-0.422363,-0.017334,-0.291696,-0.633748,0.393750,-0.598530
28231,,9.728708,-0.999697,-0.965728,0.004218,0.021429,-0.003489,1.010986,-0.424561,-0.015137,-0.291695,-0.633753,0.393699,-0.598558
28232,,9.705848,-0.973802,-0.964217,0.010424,0.014234,-0.002056,1.013428,-0.424561,-0.008545,-0.291677,-0.633776,0.393673,-0.598560
28233,,9.675417,-1.000976,-0.952553,-0.003757,0.013011,-0.001725,1.017822,-0.419922,-0.010986,-0.291631,-0.633822,0.393611,-0.598575
28234,,9.706137,-0.973587,-0.961521,0.001817,0.014837,0.000599,1.008789,-0.422363,-0.012939,-0.291634,-0.633825,0.393618,-0.598565
28235,,9.718821,-1.009494,-1.017888,0.004167,0.011827,0.000784,1.008789,-0.424561,-0.015137,-0.291593,-0.633857,0.393582,-0.598575
28236,,9.726346,-0.979260,-0.971864,-0.002430,0.014322,0.002168,1.010742,-0.415527,-0.006836,-0.291604,-0.633852,0.393608,-0.598558
28237,,9.723385,-0.959072,-0.983836,-0.006610,0.012953,0.000424,1.008789,-0.424561,-0.010742,-0.291606,-0.633862,0.393607,-0.598547
28238,,9.746579,-0.984747,-0.982210,-0.016837,0.016368,0.001525,1.013428,-0.422119,-0.010986,-0.291669,-0.633831,0.393671,-0.598507
28239,,9.743546,-0.986912,-0.938462,-0.009959,0.020213,-0.003163,1.015625,-0.424316,-0.012939,-0.291666,-0.633846,0.393617,-0.598528
28240,,9.713166,-1.014004,-0.926227,-0.012263,0.022444,0.000449,1.008789,-0.424561,-0.010742,-0.291729,-0.633806,0.393655,-0.598514
28241,,9.705943,-1.044206,-0.969623,-0.004079,0.007458,-0.002221,1.015869,-0.426758,-0.010742,-0.291673,-0.633871,0.393597,-0.598512
28242,,9.739720,-1.036909,-0.965785,-0.010789,0.011588,-0.001324,1.008789,-0.424561,-0.012939,-0.291715,-0.633869,0.393641,-0.598464
28243,,9.760027,-1.019339,-1.032963,-0.004416,0.012363,-0.003674,1.010742,-0.417725,-0.010986,-0.291658,-0.633931,0.393556,-0.598482
28244,,9.725325,-1.096873,-1.053007,-0.010281,0.014660,-0.003659,1.013428,-0.422119,-0.015137,-0.291712,-0.633925,0.393586,-0.598442
28245,,9.726560,-1.048160,-0.977876,-0.014866,0.019049,-0.003547,1.006348,-0.422363,-0.006592,-0.291774,-0.633906,0.393600,-0.598423
28246,,9.713124,-1.060320,-0.991854,-0.012374,0.024085,-0.000037,1.011230,-0.426758,-0.010742,-0.291842,-0.633862,0.393634,-0.598414
28247,,9.679718,-1.067320,-0.992430,0.008843,0.026736,-0.000751,1.010986,-0.422363,-0.008789,-0.291751,-0.633902,0.393484,-0.598515
28248,,9.676945,-1.047144,-1.002770,0.016428,0.030456,0.000313,1.018066,-0.424316,-0.008545,-0.291739,-0.633880,0.393425,-0.598583
28249,,9.700473,-1.050236,-1.055536,0.010542,0.012608,-0.001556,1.011230,-0.426758,-0.010742,-0.291633,-0.633957,0.393303,-0.598633
28250,,9.734484,-1.020582,-1.106820,0.022498,0.004744,-0.000609,1.010986,-0.424561,-0.015137,-0.291555,-0.634023,0.393259,-0.598630
28251,,9.708176,-0.997524,-1.064335,0.019530,0.006320,0.001052,1.008789,-0.424561,-0.010742,-0.291399,-0.634126,0.393132,-0.598681
28252,,9.681603,-0.996900,-0.966763,0.008500,0.001033,-0.003128,1.008789,-0.426758,-0.010742,-0.291365,-0.634187,0.393127,-0.598635
28253,,9.732051,-0.997418,-0.933878,0.004240,0.010982,-0.002527,1.013428,-0.424561,-0.015137,-0.291262,-0.634271,0.393010,-0.598674
28254,,9.715266,-1.012011,-0.906162,0.006468,0.020072,-0.003787,1.013428,-0.422119,-0.015137,-0.291273,-0.634274,0.392982,-0.598683
28255,,9.732500,-0.996836,-0.929813,0.010088,0.029620,-0.004464,1.013428,-0.422119,-0.013184,-0.291251,-0.634279,0.392874,-0.598760
28256,,9.742488,-1.012192,-0.998103,0.006285,0.022564,-0.000960,1.008545,-0.420166,-0.010986,-0.291259,-0.634268,0.392852,-0.598781
28257,,9.725994,-1.004299,-1.025631,0.009997,0.010324,-0.003021,1.008789,-0.424561,-0.008545,-0.291202,-0.634324,0.392782,-0.598796
28258,,9.776718,-0.982280,-1.047963,0.001170,0.003728,-0.000388,1.013184,-0.419922,-0.019775,-0.291188,-0.634362,0.392805,-0.598748
28259,,9.736468,-0.994063,-0.965864,0.007464,0.015826,-0.000384,1.013184,-0.417725,-0.013184,-0.291140,-0.634392,0.392744,-0.598779
28260,,9.676578,-0.977831,-0.925296,0.007679,0.023024,-0.000379,1.008545,-0.420166,-0.008789,-0.291144,-0.634381,0.392719,-0.598805
28261,,9.724028,-0.958503,-0.904241,0.014539,0.016479,0.003020,1.010986,-0.424561,-0.012939,-0.291084,-0.634403,0.392664,-0.598848
28262,,9.750638,-0.982154,-0.943769,0.013984,0.024658,0.000589,1.008789,-0.424561,-0.010742,-0.291068,-0.634394,0.392621,-0.598893
28263,,9.676690,-1.004252,-1.047797,0.015785,0.019355,-0.000682,1.006348,-0.422363,-0.015137,-0.290958,-0.634454,0.392483,-0.598974
28264,,9.710517,-0.997039,-1.043220,0.011579,0.008294,-0.005263,1.008789,-0.422363,-0.012939,-0.290935,-0.634502,0.392452,-0.598954
28265,,9.737130,-1.020244,-1.083618,-0.000415,0.016233,0.000882,1.015625,-0.422119,-0.013184,-0.290907,-0.634518,0.392418,-0.598973
28266,,9.737303,-1.020198,-1.082109,0.003290,0.014459,-0.002140,1.010742,-0.417725,-0.013184,-0.290913,-0.634529,0.392413,-0.598961
28267,,9.741208,-0.992160,-0.993975,0.007066,0.011124,0.002437,1.011230,-0.424561,-0.008545,-0.290872,-0.634554,0.392392,-0.598968
28268,,9.704970,-0.953418,-0.880366,-0.001474,0.010869,0.001757,1.013428,-0.424561,-0.008545,-0.290875,-0.634562,0.392419,-0.598941
28269,,9.731526,-0.976821,-0.921146,-0.012688,0.008063,0.000394,1.013428,-0.426758,-0.015137,-0.290807,-0.634627,0.392359,-0.598944
28270,,9.734669,-0.996925,-0.906728,0.003181,0.016096,-0.002626,1.010986,-0.424561,-0.012939,-0.290818,-0.634635,0.392350,-0.598936
28271,,9.742431,-0.943718,-0.915422,0.007027,0.022379,-0.002333,1.010986,-0.419922,-0.006592,-0.290746,-0.634677,0.392229,-0.599007
28272,,9.721940,-0.986438,-0.973733,0.001051,0.026313,-0.002820,1.008789,-0.424561,-0.017334,-0.290784,-0.634651,0.392211,-0.599027
28273,,9.752167,-1.007216,-1.055095,-0.003639,0.021867,-0.002238,1.010742,-0.417725,-0.017578,-0.290773,-0.634661,0.392151,-0.599061
28274,,9.721740,-1.034255,-1.043301,0.002747,0.012171,-0.003602,1.013428,-0.424561,-0.008545,-0.290780,-0.634682,0.392146,-0.599039
28275,,9.715475,-1.015970,-1.012926,-0.000666,0.020293,-0.003895,1.010986,-0.419922,-0.008789,-0.290783,-0.634692,0.392096,-0.599060
28276,,9.721713,-1.056245,-0.984440,-0.002025,0.019055,-0.000681,1.015625,-0.424316,-0.012939,-0.290810,-0.634679,0.392104,-0.599055
28277,,9.741952,-1.061754,-0.995432,0.011647,0.017214,0.001372,1.010986,-0.419922,-0.010986,-0.290724,-0.634723,0.392008,-0.599113
28278,,9.698960,-1.030990,-0.981349,0.020297,0.015835,0.002545,1.013428,-0.426758,-0.010742,-0.290664,-0.634746,0.391964,-0.599146
28279,,9.679045,-1.025743,-0.966825,0.011727,0.016360,-0.001943,1.010986,-0.424561,-0.010742,-0.290571,-0.634809,0.391843,-0.599204
28280,,9.685636,-1.043871,-0.994462,0.009634,0.004845,0.003611,1.008545,-0.420166,-0.013184,-0.290520,-0.634847,0.391851,-0.599183
28281,,9.780623,-0.982541,-1.010609,0.016343,0.011191,0.001763,1.008545,-0.420166,-0.015381,-0.290410,-0.634912,0.391757,-0.599229
28282,,9.767215,-0.995234,-1.024848,0.004171,0.022330,-0.000199,1.006104,-0.417969,-0.013184,-0.290423,-0.634897,0.391744,-0.599246
28283,,9.724227,-0.964204,-1.011015,0.006521,0.008839,0.000977,1.010986,-0.424561,-0.010742,-0.290399,-0.634920,0.391743,-0.599234
28284,,9.734371,-0.954084,-0.951928,0.002782,0.011395,0.000193,1.013184,-0.419922,-0.015381,-0.290394,-0.634936,0.391752,-0.599215
28285,,9.714421,-0.948603,-0.937878,-0.004586,0.014870,-0.000888,1.013428,-0.426758,-0.015137,-0.290375,-0.634959,0.391716,-0.599223
28286,,9.731130,-0.956079,-0.907190,-0.003113,0.014472,-0.003614,1.008545,-0.417725,-0.017578,-0.290406,-0.634964,0.391726,-0.599197
28287,,9.744332,-0.991942,-0.963093,0.001528,0.019000,0.002916,1.015625,-0.419922,-0.010986,-0.290385,-0.634962,0.391703,-0.599223
28288,,9.693783,-1.014099,-0.937991,0.009632,0.025807,0.001656,1.010742,-0.415527,-0.013184,-0.290381,-0.634941,0.391675,-0.599266
28289,,9.720623,-1.037486,-0.977282,0.000845,0.019124,-0.002834,1.010986,-0.422363,-0.010986,-0.290411,-0.634932,0.391662,-0.599269
28290,,9.717818,-1.017264,-0.988861,-0.013395,0.017968,0.004550,1.008789,-0.422363,-0.012939,-0.290456,-0.634896,0.391723,-0.599246
28291,,9.745152,-1.018319,-1.084542,-0.014269,0.010104,0.002603,1.013428,-0.422119,-0.010986,-0.290438,-0.634918,0.391724,-0.599230
28292,,9.744697,-1.040872,-1.027819,-0.002017,0.019067,-0.000694,1.008789,-0.422363,-0.012939,-0.290465,-0.634906,0.391733,-0.599224
28293,,9.721239,-1.037639,-0.970972,0.004914,0.022141,-0.001561,1.010742,-0.415527,-0.013184,-0.290424,-0.634928,0.391647,-0.599278
28294,,9.697729,-1.034415,-0.914435,0.007041,0.011919,-0.001357,1.008789,-0.424561,-0.017334,-0.290410,-0.634951,0.391637,-0.599266
28295,,9.694857,-1.014073,-0.926851,0.008950,0.004971,-0.002130,1.010986,-0.422363,-0.015137,-0.290374,-0.634999,0.391617,-0.599246
28296,,9.742692,-0.971889,-0.962690,0.005757,-0.000660,-0.000476,1.008789,-0.424561,-0.019531,-0.290338,-0.635056,0.391632,-0.599193
28297,,9.715688,-0.996972,-0.993981,0.013345,0.013556,-0.000374,1.015625,-0.422119,-0.013184,-0.290267,-0.635101,0.391561,-0.599226
28298,,9.758985,-1.028248,-1.004735,0.009088,0.013038,0.001177,1.006348,-0.420166,-0.017578,-0.290242,-0.635119,0.391551,-0.599226
28299,,9.762107,-1.048704,-0.989636,0.012828,0.020966,0.000983,1.017578,-0.415283,-0.011230,-0.290200,-0.635128,0.391489,-0.599276
28300,,9.719178,-1.017698,-0.974947,0.004400,0.029555,-0.000212,1.013428,-0.424561,-0.012939,-0.290226,-0.635092,0.391465,-0.599317
28301,,9.749122,-1.061292,-1.000275,-0.001902,0.027920,-0.001199,1.010986,-0.422363,-0.013184,-0.290247,-0.635068,0.391422,-0.599361
28302,,9.705853,-1.078516,-1.059442,0.011739,0.016377,-0.001936,1.008789,-0.424561,-0.008545,-0.290229,-0.635086,0.391389,-0.599372
28303,,9.742912,-1.043179,-0.967874,0.004916,0.011664,-0.000585,1.010986,-0.419922,-0.013184,-0.290139,-0.635152,0.391296,-0.599407
28304,,9.699121,-1.034445,-0.899519,-0.003953,0.005832,-0.001770,1.015625,-0.424316,-0.010742,-0.290150,-0.635178,0.391326,-0.599354
28305,,9.706778,-0.981455,-0.909707,-0.000301,0.004135,0.002333,1.015869,-0.428955,-0.010742,-0.290079,-0.635239,0.391294,-0.599345
28306,,9.731553,-0.914004,-0.946162,0.004935,0.000399,0.004201,1.010986,-0.419922,-0.015381,-0.290033,-0.635283,0.391324,-0.599301
28307,,9.720967,-0.947203,-0.948630,0.008347,0.002756,0.003525,1.013184,-0.419922,-0.010986,-0.289903,-0.635372,0.391247,-0.599319
28308,,9.694655,-0.950090,-1.035706,0.011215,0.002816,0.001389,1.015625,-0.424316,-0.012939,-0.289850,-0.635424,0.391247,-0.599291
28309,,9.734158,-0.983892,-1.005536,0.000677,-0.000119,0.005750,1.008789,-0.424561,-0.012939,-0.289754,-0.635494,0.391225,-0.599278
28310,,9.757207,-1.009941,-1.004684,-0.003929,0.005054,0.002030,1.013184,-0.419922,-0.015381,-0.289752,-0.635515,0.391268,-0.599228
28311,,9.757275,-1.010124,-1.003842,-0.013832,0.014044,0.003553,1.018066,-0.424316,-0.012939,-0.289748,-0.635517,0.391277,-0.599221
28312,,9.770209,-1.020020,-0.930996,-0.013332,0.017900,-0.002588,1.015625,-0.424316,-0.012939,-0.289815,-0.635496,0.391315,-0.599187
28313,,9.750240,-1.014468,-0.916790,-0.013939,0.015684,0.003063,1.015869,-0.426758,-0.010742,-0.289780,-0.635517,0.391280,-0.599203
28314,,9.767564,-0.999725,-0.941335,-0.016936,0.018043,0.000908,1.010986,-0.422363,-0.017334,-0.289848,-0.635483,0.391340,-0.599168
28315,,9.704171,-1.011560,-0.988288,-0.010741,0.021319,0.001409,1.015625,-0.422119,-0.013184,-0.289822,-0.635493,0.391287,-0.599204
28316,,9.721533,-0.996658,-1.012824,-0.005011,0.010950,-0.001876,1.008789,-0.422363,-0.015137,-0.289847,-0.635503,0.391313,-0.599166
28317,,9.695448,-0.998922,-1.099228,-0.001491,0.011669,-0.002061,1.013184,-0.417725,-0.010986,-0.289813,-0.635543,0.391267,-0.599169
28318,,9.674457,-1.064120,-1.103689,0.002331,0.008252,-0.004579,1.008545,-0.420166,-0.015381,-0.289817,-0.635577,0.391266,-0.599132
28319,,9.721752,-1.044144,-1.083141,0.000424,0.015206,-0.003812,1.010742,-0.415527,-0.015381,-0.289825,-0.635592,0.391240,-0.599130
28320,,9.684542,-1.053343,-1.043368,-0.007665,0.007614,0.001234,1.013428,-0.424561,-0.015137,-0.289842,-0.635601,0.391288,-0.599080
28321,,9.714293,-1.097242,-1.070814,-0.006253,0.007293,0.005623,1.015625,-0.422119,-0.008789,-0.289825,-0.635612,0.391322,-0.599054
28322,,9.727011,-1.107775,-0.998576,-0.001449,0.010110,0.005539,1.013184,-0.422119,-0.019531,-0.289815,-0.635615,0.391362,-0.599030
28323,,9.690492,-1.095056,-1.014473,0.011758,0.005111,0.002861,1.017822,-0.419922,-0.015381,-0.289709,-0.635687,0.391298,-0.599047
28324,,9.720418,-1.090721,-0.968283,0.014433,0.007669,0.003550,1.010986,-0.424561,-0.017334,-0.289649,-0.635724,0.391287,-0.599043
28325,,9.697416,-1.065472,-0.967877,0.019977,0.010286,0.002104,1.013428,-0.424561,-0.012939,-0.289544,-0.635784,0.391205,-0.599084
28326,,9.765566,-1.029258,-1.015346,0.023605,0.009368,0.002410,1.006104,-0.417969,-0.015381,-0.289461,-0.635832,0.391160,-0.599102
28327,,9.753162,-0.971123,-1.012199,0.023694,0.008510,-0.000902,1.015625,-0.424316,-0.012939,-0.289347,-0.635910,0.391057,-0.599142
28328,,9.753269,-0.971273,-1.011022,0.013462,0.011930,0.000128,1.004150,-0.422363,-0.015137,-0.289308,-0.635940,0.391032,-0.599145
28329,,9.704351,-0.900047,-1.024354,0.021915,0.013050,0.004151,1.008789,-0.422363,-0.015137,-0.289164,-0.636010,0.390914,-0.599218
28330,,9.723757,-0.928526,-0.980070,0.003142,0.016211,0.004467,1.008789,-0.422363,-0.012939,-0.289154,-0.636003,0.390928,-0.599221
28331,,9.710440,-0.941386,-0.994223,0.001325,0.022307,0.001917,1.015625,-0.422119,-0.010986,-0.289115,-0.636011,0.390866,-0.599272
28332,,9.683667,-0.966571,-1.024494,-0.003918,0.015552,0.001031,1.015625,-0.424316,-0.019531,-0.289136,-0.636003,0.390891,-0.599254
28333,,9.747142,-1.003359,-1.047833,-0.002207,0.011095,0.003090,1.010986,-0.419922,-0.010986,-0.289082,-0.636039,0.390856,-0.599265
28334,,9.740549,-0.985621,-1.018048,-0.000076,0.011355,0.002319,1.008789,-0.424561,-0.015137,-0.289079,-0.636046,0.390880,-0.599243
28335,,9.689747,-1.007729,-0.994395,-0.004338,0.010837,0.003861,1.008789,-0.426758,-0.012939,-0.289024,-0.636080,0.390851,-0.599252
28336,,9.723421,-1.000906,-0.990252,-0.009688,0.005720,0.002484,1.015625,-0.419922,-0.010986,-0.289040,-0.636090,0.390912,-0.599194
28337,,9.730179,-1.018979,-1.018209,-0.000727,0.010695,0.000369,1.013428,-0.422119,-0.017334,-0.288961,-0.636151,0.390836,-0.599217
28338,,9.723564,-1.001068,-0.988688,0.001723,0.006037,0.001069,1.010742,-0.417725,-0.019775,-0.288946,-0.636179,0.390858,-0.599180
28339,,9.726535,-1.021570,-0.974263,0.013270,0.014433,0.002954,1.015625,-0.424316,-0.017334,-0.288914,-0.636187,0.390843,-0.599197
28340,,9.714172,-0.963533,-0.970743,0.013271,0.014434,0.002954,1.015625,-0.422119,-0.015381,-0.288873,-0.636203,0.390824,-0.599212
28341,,9.714251,-0.963902,-0.969585,0.000137,0.008079,0.003298,1.011230,-0.426758,-0.017334,-0.288810,-0.636247,0.390794,-0.599215
28342,,9.737370,-0.989876,-0.967856,-0.002312,0.012738,0.002597,1.010986,-0.422363,-0.010986,-0.288816,-0.636246,0.390823,-0.599194
28343,,9.737511,-0.990154,-0.966148,0.000591,0.022516,0.003273,1.013184,-0.417725,-0.013184,-0.288745,-0.636269,0.390735,-0.599262
28344,,9.721321,-0.982726,-0.993868,-0.002311,0.012739,0.002596,1.010986,-0.424561,-0.010742,-0.288751,-0.636269,0.390764,-0.599240
28345,,9.713758,-1.036014,-0.981534,-0.001539,0.022259,0.004043,1.010986,-0.422363,-0.010986,-0.288716,-0.636269,0.390715,-0.599289
28346,,9.714877,-1.013806,-1.035293,-0.009460,0.012942,0.002464,1.010986,-0.419922,-0.015381,-0.288745,-0.636258,0.390765,-0.599254
28347,,9.728427,-1.050171,-1.091361,-0.003248,0.015443,0.006775,1.015869,-0.426758,-0.019531,-0.288703,-0.636264,0.390750,-0.599276
28348,,9.698766,-1.007084,-1.061872,0.002406,0.016421,0.005826,1.006592,-0.424561,-0.012939,-0.288692,-0.636253,0.390770,-0.599281
28349,,9.711263,-1.017534,-0.989393,-0.003174,0.004083,0.004458,1.010986,-0.419922,-0.013184,-0.288594,-0.636322,0.390727,-0.599283
28350,,9.735333,-0.972606,-0.969826,-0.004441,0.012483,0.003364,1.015625,-0.422119,-0.015381,-0.288604,-0.636318,0.390765,-0.599258
28351,,9.731571,-0.974988,-0.926482,-0.005300,0.015103,0.000432,1.010986,-0.419922,-0.015381,-0.288597,-0.636329,0.390748,-0.599261
28352,,9.742320,-0.990718,-0.995913,-0.000826,0.012341,-0.000124,1.013428,-0.426758,-0.017334,-0.288606,-0.636337,0.390764,-0.599237
28353,,9.726121,-0.983141,-1.024296,0.011550,0.008397,0.001895,1.010986,-0.419922,-0.015381,-0.288510,-0.636400,0.390694,-0.599262
28354,,9.732941,-1.001295,-1.052112,0.003752,0.007939,-0.000191,1.003906,-0.420166,-0.017578,-0.288496,-0.636428,0.390703,-0.599233
28355,,9.705097,-1.049085,-1.027933,0.002072,0.010844,0.005348,1.006104,-0.417969,-0.013184,-0.288469,-0.636435,0.390718,-0.599229
28356,,9.715835,-1.065417,-1.097263,0.005929,0.017144,0.005648,1.010986,-0.419922,-0.015381,-0.288448,-0.636427,0.390726,-0.599243
28357,,9.702483,-1.029890,-1.038050,0.005072,0.019764,0.002715,1.015625,-0.422119,-0.013184,-0.288437,-0.636417,0.390707,-0.599270
28358,,9.708354,-1.070715,-1.009208,0.007749,0.022325,0.003406,1.008789,-0.422363,-0.017334,-0.288428,-0.636401,0.390695,-0.599300
28359,,9.719146,-1.038330,-1.004132,0.015536,0.023563,0.001692,1.015625,-0.419922,-0.017578,-0.288358,-0.636420,0.390599,-0.599377
28360,,9.708589,-1.022818,-0.931694,0.002166,0.009985,0.002036,1.013184,-0.417725,-0.019775,-0.288346,-0.636435,0.390616,-0.599355
28361,,9.713557,-0.949834,-0.954965,-0.002539,0.005525,0.002603,1.017822,-0.419922,-0.015381,-0.288369,-0.636435,0.390681,-0.599302
28362,,9.717492,-0.947955,-0.996709,0.004923,0.000402,0.004216,1.015869,-0.428955,-0.017334,-0.288323,-0.636478,0.390711,-0.599258
28363,,9.710832,-0.979003,-1.041087,0.006649,0.006444,0.005284,1.013428,-0.426758,-0.017334,-0.288216,-0.636542,0.390654,-0.599278
28364,,9.740515,-0.974837,-0.994826,0.011666,0.005983,0.006190,1.008789,-0.424561,-0.019531,-0.288154,-0.636575,0.390663,-0.599268
28365,,9.729845,-0.959555,-0.923078,0.002607,0.013928,0.003002,1.008789,-0.422363,-0.017334,-0.288077,-0.636616,0.390601,-0.599302
28366,,9.715553,-1.043290,-0.955724,-0.002513,0.016031,0.001603,1.013184,-0.422119,-0.019531,-0.288093,-0.636607,0.390622,-0.599290
28367,,9.737060,-1.026471,-1.021879,-0.000043,0.021873,0.001311,1.011230,-0.428955,-0.012939,-0.288094,-0.636594,0.390600,-0.599317
28368,,9.723849,-1.039291,-1.035759,0.003385,0.023457,0.004444,1.008789,-0.424561,-0.017334,-0.288097,-0.636566,0.390603,-0.599344
28369,,9.717228,-1.021692,-1.005033,0.005182,0.018133,0.003201,1.008789,-0.424561,-0.021729,-0.287982,-0.636621,0.390486,-0.599417
28370,,9.717363,-1.022034,-1.003380,0.000373,0.015314,0.003276,1.013184,-0.419922,-0.021973,-0.287983,-0.636615,0.390506,-0.599410
28371,,9.734801,-1.007859,-1.028367,0.000353,0.004031,0.008077,1.013428,-0.422119,-0.015137,-0.287953,-0.636626,0.390561,-0.599377
28372,,9.745393,-0.975830,-1.025005,0.000044,0.008954,0.006601,1.010986,-0.419922,-0.017578,-0.287933,-0.636632,0.390601,-0.599354
28373,,9.698425,-0.995841,-1.043720,0.003559,0.010449,0.002626,1.008545,-0.420166,-0.017578,-0.287900,-0.636654,0.390591,-0.599353
28374,,9.708147,-1.034139,-1.057912,0.010054,0.010359,-0.002982,1.010986,-0.424561,-0.015137,-0.287879,-0.636689,0.390569,-0.599340
28375,,9.704290,-1.036167,-1.014655,0.011341,0.012461,-0.002882,1.015625,-0.424316,-0.010742,-0.287823,-0.636738,0.390497,-0.599362
28376,,9.703245,-1.058389,-0.957819,0.005479,0.014766,-0.002927,1.010986,-0.422363,-0.013184,-0.287824,-0.636754,0.390482,-0.599354
28377,,9.700568,-1.038132,-0.970000,0.006538,0.008866,0.000993,1.011230,-0.426758,-0.019531,-0.287720,-0.636829,0.390389,-0.599385
28378,,9.731434,-1.011366,-0.978799,0.006346,0.010596,0.007610,1.004150,-0.424561,-0.017334,-0.287679,-0.636837,0.390411,-0.599382
28379,,9.718103,-1.024560,-0.993586,0.006781,0.015318,0.004775,1.013428,-0.426758,-0.019531,-0.287587,-0.636876,0.390342,-0.599430
28380,,9.709804,-0.964503,-1.032394,-0.000906,0.012442,0.006971,1.010986,-0.424561,-0.015137,-0.287574,-0.636869,0.390381,-0.599417
28381,,9.712602,-0.985405,-1.018282,-0.004563,0.002856,0.007656,1.010742,-0.417725,-0.017578,-0.287480,-0.636928,0.390363,-0.599412
28382,,9.755771,-1.017280,-1.029893,-0.010764,-0.000424,0.007136,1.004150,-0.424561,-0.021729,-0.287473,-0.636946,0.390451,-0.599339
28383,,9.719370,-1.004385,-1.046568,-0.009892,0.009017,0.001465,1.015625,-0.422119,-0.019531,-0.287505,-0.636940,0.390506,-0.599293
28384,,9.751810,-1.019836,-0.986709,-0.012128,0.010401,0.001738,1.006592,-0.427002,-0.015137,-0.287540,-0.636934,0.390566,-0.599244
28385,,9.741348,-1.052595,-0.987994,-0.002812,0.020965,0.000118,1.008545,-0.420166,-0.017578,-0.287512,-0.636948,0.390506,-0.599283
28386,,9.703906,-1.061904,-0.947178,0.009591,0.027526,0.001160,1.010986,-0.419922,-0.021729,-0.287513,-0.636923,0.390474,-0.599330
28387,,9.741806,-1.052978,-0.983054,0.015658,0.021939,0.002193,1.008789,-0.422363,-0.017334,-0.287501,-0.636905,0.390450,-0.599369
28388,,9.700342,-1.048331,-1.098428,0.013389,0.012812,0.003469,1.008789,-0.422363,-0.012939,-0.287455,-0.636925,0.390435,-0.599380
28389,,9.720612,-1.054291,-1.110170,0.007051,0.000661,0.003459,1.015625,-0.422119,-0.017334,-0.287361,-0.636997,0.390403,-0.599370
28390,,9.717829,-1.034474,-1.123299,0.010473,0.003021,0.002795,1.008545,-0.420166,-0.015381,-0.287307,-0.637043,0.390408,-0.599343
28391,,9.696289,-1.051914,-1.054756,0.009427,0.007374,0.006475,1.010986,-0.424561,-0.015137,-0.287236,-0.637077,0.390395,-0.599350
28392,,9.749847,-1.002300,-0.989340,0.013692,0.008665,0.001145,1.008789,-0.424561,-0.017334,-0.287188,-0.637114,0.390377,-0.599345
28393,,9.713559,-0.989390,-1.005206,0.014135,0.012612,0.002109,1.013428,-0.426758,-0.021729,-0.287076,-0.637177,0.390278,-0.599396
28394,,9.727078,-0.977164,-0.987384,0.007225,0.020047,0.001935,1.010986,-0.424561,-0.012939,-0.287068,-0.637169,0.390266,-0.599416
28395,,9.711493,-1.018412,-1.088229,0.022270,0.019437,0.000881,1.013184,-0.419922,-0.017578,-0.286941,-0.637230,0.390123,-0.599506
28396,,9.696952,-1.053571,-1.046986,0.016068,0.016156,0.000357,1.006348,-0.422363,-0.015137,-0.286902,-0.637250,0.390084,-0.599528
28397,,9.714597,-1.039011,-1.071318,0.012001,0.013132,-0.000930,1.011230,-0.426758,-0.015137,-0.286858,-0.637282,0.390035,-0.599547
28398,,9.716078,-1.081712,-1.001377,0.004511,0.006973,0.002249,1.015625,-0.424316,-0.015137,-0.286832,-0.637309,0.390051,-0.599520
28399,,9.720224,-1.079860,-1.042925,0.011320,0.001181,0.001934,1.008789,-0.422363,-0.012939,-0.286688,-0.637415,0.389954,-0.599539
28400,,9.721215,-1.009241,-1.024536,0.016678,0.006310,0.003319,1.008545,-0.420166,-0.015381,-0.286619,-0.637460,0.389937,-0.599536
28401,,9.727770,-0.979258,-0.978446,0.018006,0.018156,0.006206,1.013428,-0.424561,-0.015137,-0.286526,-0.637484,0.389864,-0.599602
28402,,9.696991,-1.007128,-0.967168,0.007835,0.010205,0.004891,1.006348,-0.422363,-0.019531,-0.286488,-0.637501,0.389874,-0.599596
28403,,9.741683,-1.016785,-1.032933,0.007635,0.012716,0.007704,1.015625,-0.422119,-0.017334,-0.286406,-0.637527,0.389840,-0.599629
28404,,9.685169,-0.998775,-1.036064,0.011704,0.016516,0.005187,1.011230,-0.426758,-0.015137,-0.286367,-0.637530,0.389830,-0.599651
28405,,9.692141,-1.017382,-1.063429,0.009528,0.006515,0.003166,1.018066,-0.426514,-0.012939,-0.286262,-0.637599,0.389763,-0.599672
28406,,9.725781,-1.010788,-1.059080,0.011764,0.005132,0.002897,1.006348,-0.422363,-0.023926,-0.286207,-0.637641,0.389761,-0.599655
28407,,9.701370,-1.007815,-1.004106,0.007595,0.002975,0.004918,1.011230,-0.426758,-0.012939,-0.286112,-0.637703,0.389729,-0.599655
28408,,9.758034,-1.026715,-0.998614,0.009973,0.012008,-0.003478,1.013428,-0.422119,-0.017334,-0.286095,-0.637734,0.389703,-0.599646
28409,,9.717675,-1.015673,-0.972170,0.005199,0.018160,0.003177,1.011230,-0.426758,-0.019531,-0.286018,-0.637767,0.389622,-0.599701
28410,,9.721967,-1.013921,-1.012710,0.007092,0.011185,0.002443,1.015625,-0.422119,-0.015381,-0.285991,-0.637785,0.389625,-0.599693
28411,,9.740899,-1.042028,-0.968133,0.009471,0.018677,0.001650,1.013428,-0.424561,-0.012939,-0.285923,-0.637815,0.389545,-0.599746
28412,,9.698286,-1.059872,-1.028096,0.023875,0.016632,0.002460,1.001953,-0.424805,-0.017334,-0.285854,-0.637841,0.389489,-0.599788
28413,,9.711729,-1.047749,-1.010589,0.020953,0.006834,0.001799,1.008789,-0.422363,-0.019531,-0.285705,-0.637934,0.389372,-0.599836
28414,,9.690284,-1.000064,-1.066234,0.004413,0.008621,0.001749,1.006348,-0.424561,-0.019531,-0.285684,-0.637957,0.389384,-0.599813
28415,,9.709139,-1.027983,-1.022380,0.006006,0.006570,-0.000468,1.010986,-0.424561,-0.019531,-0.285639,-0.638002,0.389360,-0.599802
28416,,9.733151,-0.983040,-1.002769,0.001429,0.009441,0.007174,1.010986,-0.419922,-0.017578,-0.285613,-0.638008,0.389398,-0.599784
28417,,9.756179,-1.009118,-1.000952,-0.014806,0.007843,0.001005,1.010986,-0.424561,-0.019531,-0.285643,-0.638011,0.389447,-0.599734
28418,,9.722648,-1.015993,-1.004052,-0.019821,0.008304,0.000083,1.010986,-0.424561,-0.015137,-0.285704,-0.638004,0.389527,-0.599661
28419,,9.732417,-1.054295,-1.017939,-0.011337,0.019955,0.003120,1.013428,-0.424561,-0.017334,-0.285696,-0.637999,0.389509,-0.599681
28420,,9.692042,-1.043358,-0.991316,0.010321,0.016835,0.000790,1.011230,-0.426758,-0.021729,-0.285675,-0.638008,0.389489,-0.599695
28421,,9.687281,-1.051948,-1.090283,0.011022,0.006111,0.000457,1.013428,-0.422119,-0.017334,-0.285577,-0.638082,0.389416,-0.599710
28422,,9.775995,-1.086187,-1.025570,0.016038,0.005652,0.001380,1.006592,-0.429199,-0.017090,-0.285514,-0.638131,0.389397,-0.599700
28423,,9.720992,-1.045634,-1.084948,0.013600,0.009551,0.004456,1.008789,-0.426758,-0.019531,-0.285385,-0.638201,0.389305,-0.599747
28424,,9.716827,-1.048032,-1.041900,0.008688,0.009139,0.000226,1.010986,-0.424561,-0.017334,-0.285356,-0.638232,0.389299,-0.599732
28425,,9.705761,-1.032186,-0.969874,0.002968,0.019555,0.003434,1.018066,-0.426514,-0.019531,-0.285292,-0.638253,0.389232,-0.599784
28426,,9.723466,-1.017970,-0.994086,-0.003886,0.014831,0.004760,1.009033,-0.428955,-0.019287,-0.285301,-0.638240,0.389269,-0.599769
28427,,9.717186,-1.049021,-1.037552,0.003569,0.010472,0.002609,1.008789,-0.424561,-0.017334,-0.285198,-0.638304,0.389188,-0.599802
28428,,9.726304,-1.038837,-0.978484,-0.001995,0.007853,0.004033,1.010986,-0.424561,-0.017334,-0.285189,-0.638316,0.389227,-0.599768
28429,,9.727919,-1.017065,-1.033124,0.004312,0.009498,0.005056,1.015625,-0.422119,-0.021729,-0.285105,-0.638361,0.389183,-0.599789
28430,,9.726399,-1.039737,-0.976586,0.004960,0.010935,0.003204,1.009033,-0.431396,-0.019287,-0.285082,-0.638375,0.389195,-0.599777
28431,,9.741394,-1.005219,-1.014798,0.002081,0.011653,0.001517,1.013184,-0.422119,-0.023926,-0.285012,-0.638423,0.389137,-0.599798
28432,,9.723902,-1.019907,-0.987816,0.012964,0.009655,-0.001293,1.010986,-0.422119,-0.019531,-0.284975,-0.638461,0.389112,-0.599791
28433,,9.725561,-0.997897,-1.042529,0.014002,0.003754,0.002643,1.011230,-0.426758,-0.012939,-0.284924,-0.638499,0.389113,-0.599773
28434,,9.719265,-1.028945,-1.086432,-0.002192,0.011139,0.003037,1.008789,-0.424561,-0.017334,-0.284925,-0.638503,0.389145,-0.599748
28435,,9.716670,-1.009091,-1.098846,-0.008702,0.012010,0.004821,1.008789,-0.424561,-0.010742,-0.284855,-0.638543,0.389099,-0.599768
28436,,9.725753,-0.998854,-1.039817,-0.010536,0.007595,0.003269,1.008789,-0.426758,-0.017334,-0.284875,-0.638545,0.389162,-0.599715
28437,,9.725789,-0.999014,-1.039321,-0.013217,0.005027,0.002575,1.018311,-0.431152,-0.014893,-0.284804,-0.638610,0.389123,-0.599706
28438,,9.734820,-0.988651,-0.980814,-0.009591,0.004105,0.002906,1.010986,-0.422119,-0.019531,-0.284815,-0.638625,0.389187,-0.599643
28439,,9.728538,-1.019645,-1.024718,-0.001647,0.013451,0.004492,1.013184,-0.422119,-0.021729,-0.284726,-0.638673,0.389115,-0.599682
28440,,9.724385,-1.021795,-0.981084,-0.003423,0.020330,-0.001891,1.008545,-0.422363,-0.026123,-0.284763,-0.638657,0.389122,-0.599676
28441,,9.718283,-1.052290,-1.023873,-0.005560,0.020074,-0.001132,1.013672,-0.428955,-0.019287,-0.284830,-0.638618,0.389160,-0.599661
28442,,9.722796,-1.050170,-1.064201,-0.009637,0.016275,0.001379,1.004150,-0.427002,-0.021484,-0.284870,-0.638599,0.389202,-0.599635
28443,,9.729980,-1.068274,-1.091080,0.003828,0.018486,-0.001226,1.015869,-0.426758,-0.019531,-0.284791,-0.638648,0.389096,-0.599689
28444,,9.691246,-1.034979,-1.120079,0.013956,0.015922,0.001129,1.010986,-0.422119,-0.019531,-0.284756,-0.638664,0.389067,-0.599708
28445,,9.706365,-1.113934,-1.106782,0.017234,0.009402,0.001001,1.013428,-0.426758,-0.017334,-0.284657,-0.638727,0.388986,-0.599740
28446,,9.711728,-1.041128,-1.130364,0.019220,0.000776,0.000775,1.008789,-0.424561,-0.019531,-0.284577,-0.638797,0.388962,-0.599720
28447,,9.669422,-1.052329,-1.050074,0.007998,-0.002052,-0.000687,1.015869,-0.426758,-0.017334,-0.284463,-0.638901,0.388892,-0.599708
28448,,9.720719,-1.030554,-1.071800,0.004631,0.006881,-0.004861,1.013184,-0.419922,-0.019775,-0.284458,-0.638942,0.388884,-0.599671
28449,,9.696162,-1.026942,-1.016552,0.009334,0.009813,0.002183,1.013184,-0.419922,-0.021973,-0.284389,-0.638987,0.388836,-0.599688
28450,,9.706856,-0.994759,-1.012744,0.004106,0.012023,0.007864,1.010986,-0.424561,-0.021729,-0.284357,-0.638988,0.388863,-0.599684
28451,,9.743151,-1.008688,-0.994276,0.001327,0.011097,0.006671,1.017822,-0.422119,-0.017334,-0.284342,-0.638983,0.388897,-0.599675
28452,,9.706953,-0.996182,-1.010415,-0.005281,0.013613,0.007953,1.006348,-0.422363,-0.019531,-0.284343,-0.638965,0.388950,-0.599658
28453,,9.756367,-1.004041,-1.117968,0.004953,0.010175,0.007006,1.008545,-0.419922,-0.019775,-0.284290,-0.638983,0.388947,-0.599667
28454,,9.727374,-1.003127,-1.020360,0.009034,0.013975,0.004495,1.010986,-0.424561,-0.017334,-0.284256,-0.638991,0.388946,-0.599674
28455,,9.709795,-1.018036,-0.993331,-0.004968,0.010221,0.001837,1.006592,-0.426758,-0.021484,-0.284252,-0.639004,0.388959,-0.599655
28456,,9.727496,-1.003544,-1.018782,-0.019329,0.000100,0.002523,1.008545,-0.422363,-0.026123,-0.284288,-0.639017,0.389056,-0.599560
28457,,9.734522,-1.021590,-1.047420,-0.017929,0.001332,-0.000683,1.015625,-0.422119,-0.019531,-0.284318,-0.639039,0.389121,-0.599480
28458,,9.737263,-1.041461,-1.033289,-0.010914,0.014945,-0.002535,1.006592,-0.424561,-0.017334,-0.284371,-0.639030,0.389157,-0.599442
28459,,9.709134,-1.088659,-1.008489,-0.003521,0.021215,0.001404,1.008789,-0.426758,-0.021729,-0.284363,-0.639026,0.389124,-0.599471
28460,,9.697828,-1.079138,-1.078123,0.003631,0.021011,0.001579,1.008789,-0.424561,-0.017334,-0.284369,-0.639011,0.389120,-0.599487
28461,,9.705076,-1.097520,-1.104591,0.013019,0.019421,0.001495,1.010986,-0.419922,-0.023926,-0.284278,-0.639051,0.389016,-0.599555
28462,,9.725581,-1.103374,-1.115046,0.008200,0.016596,0.001555,1.008789,-0.426758,-0.017334,-0.284261,-0.639056,0.389005,-0.599565
28463,,9.676239,-1.103051,-1.147015,0.023447,0.012695,0.001549,1.008789,-0.422363,-0.015137,-0.284168,-0.639104,0.388925,-0.599610
28464,,9.688771,-1.042055,-1.056208,0.023545,0.011053,0.002046,1.010986,-0.424561,-0.021729,-0.284089,-0.639146,0.388877,-0.599633
28465,,9.721591,-0.986505,-0.978061,0.008795,0.007504,0.000735,1.011230,-0.426758,-0.021729,-0.284018,-0.639201,0.388826,-0.599641
28466,,9.715472,-1.017342,-1.021835,0.010837,0.009405,-0.000520,1.006348,-0.424561,-0.019531,-0.283985,-0.639236,0.388811,-0.599630
28467,,9.717420,-0.995430,-1.075954,0.014605,0.016604,0.003081,1.006348,-0.424561,-0.021729,-0.283888,-0.639277,0.388722,-0.599690
28468,,9.713130,-0.997757,-1.032147,0.013870,0.017579,0.000632,1.010986,-0.424561,-0.019531,-0.283858,-0.639289,0.388690,-0.599713
28469,,9.670900,-1.015443,-1.092640,0.004132,0.013568,0.000254,1.013428,-0.422119,-0.015137,-0.283815,-0.639319,0.388646,-0.599729
28470,,9.696573,-1.061409,-1.076877,0.000254,0.007246,-0.000043,1.013428,-0.422119,-0.015137,-0.283810,-0.639344,0.388666,-0.599692
28471,,9.727612,-1.034300,-1.085918,0.002586,0.004215,0.000198,1.013428,-0.424561,-0.017334,-0.283749,-0.639405,0.388628,-0.599679
28472,,9.707324,-1.028754,-1.073136,0.006114,0.004936,0.000039,1.011230,-0.426758,-0.019531,-0.283721,-0.639445,0.388635,-0.599646
28473,,9.759466,-1.049803,-1.025032,0.007646,0.013523,0.003897,1.008789,-0.426758,-0.015137,-0.283621,-0.639496,0.388553,-0.599693
28474,,9.732172,-1.026570,-0.982417,0.006305,0.022828,0.006062,1.010742,-0.417725,-0.026367,-0.283609,-0.639470,0.388553,-0.599725
28475,,9.713899,-0.999289,-1.023391,0.008556,0.022209,0.002001,1.013428,-0.426758,-0.012939,-0.283597,-0.639457,0.388524,-0.599764
28476,,9.690219,-1.045037,-1.039856,0.017642,0.024787,0.004232,1.001709,-0.422363,-0.023926,-0.283558,-0.639446,0.388481,-0.599822
28477,,9.703669,-1.032916,-1.021244,0.020086,0.020880,0.001169,1.009033,-0.428955,-0.021484,-0.283460,-0.639485,0.388364,-0.599903
28478,,9.727105,-1.065688,-1.160211,0.013972,0.015944,0.001129,1.008789,-0.426758,-0.019531,-0.283424,-0.639500,0.388335,-0.599921
28479,,9.740485,-1.053376,-1.142552,0.009246,0.011471,0.001688,1.015625,-0.424316,-0.015137,-0.283310,-0.639570,0.388235,-0.599966
28480,,9.697269,-1.022230,-1.130688,0.011130,0.004480,0.000979,1.008789,-0.424561,-0.019531,-0.283261,-0.639617,0.388230,-0.599942
28481,,9.712121,-0.980891,-1.027478,0.005669,0.000978,-0.000913,1.008789,-0.424561,-0.021729,-0.283173,-0.639702,0.388171,-0.599931
28482,,9.694427,-0.995344,-1.001091,-0.005699,0.011203,-0.000634,1.008789,-0.424561,-0.021729,-0.283197,-0.639708,0.388202,-0.599894
28483,,9.724618,-1.039314,-1.027034,-0.006003,0.015372,0.001671,1.013428,-0.424316,-0.021729,-0.283195,-0.639710,0.388202,-0.599893
28484,,9.738039,-1.026788,-1.008940,0.002063,0.023857,-0.000044,1.008789,-0.424561,-0.019531,-0.283217,-0.639687,0.388193,-0.599912
28485,,9.687983,-1.097305,-1.057711,0.014792,0.026280,-0.001269,1.010986,-0.422119,-0.019531,-0.283172,-0.639696,0.388097,-0.599986
28486,,9.703998,-1.105071,-1.025746,0.013223,0.016158,0.002484,1.011230,-0.426758,-0.017334,-0.283135,-0.639708,0.388074,-0.600006
28487,,9.691811,-1.046868,-1.023037,0.007953,0.009366,0.001590,1.018066,-0.424316,-0.021729,-0.283056,-0.639762,0.388013,-0.600025
28488,,9.737187,-1.056439,-1.088565,0.015954,0.007314,0.000925,1.010986,-0.422119,-0.023926,-0.282998,-0.639806,0.387990,-0.600020
28489,,9.737281,-1.056679,-1.087493,0.011388,0.011734,0.000933,1.013672,-0.428955,-0.021484,-0.282966,-0.639828,0.387970,-0.600025
28490,,9.709917,-1.033062,-1.045178,0.007270,0.020116,0.001890,1.008789,-0.424561,-0.017334,-0.282958,-0.639820,0.387957,-0.600045
28491,,9.716197,-1.002389,-0.998236,0.003362,0.025974,0.000044,1.013428,-0.426758,-0.023926,-0.282903,-0.639837,0.387855,-0.600119
28492,,9.698099,-0.974743,-1.039251,-0.001366,0.021499,0.000601,1.011230,-0.428955,-0.023682,-0.282929,-0.639816,0.387862,-0.600125
28493,,9.677036,-1.040200,-1.042510,-0.000613,0.021293,-0.000752,1.013184,-0.419922,-0.019775,-0.282898,-0.639831,0.387798,-0.600165
28494,,9.679272,-1.018127,-1.096460,0.002847,0.011473,0.000145,1.010986,-0.419922,-0.021729,-0.282892,-0.639846,0.387805,-0.600147
28495,,9.738470,-1.057169,-1.076310,0.007766,0.012661,0.000590,1.013428,-0.422119,-0.017334,-0.282910,-0.639839,0.387829,-0.600131
28496,,9.738606,-1.057248,-1.075001,0.008519,0.012453,-0.000762,1.006348,-0.424561,-0.019531,-0.282891,-0.639861,0.387815,-0.600125
28497,,9.697970,-1.046095,-1.049316,0.011391,0.011739,0.000936,1.008789,-0.422363,-0.021729,-0.282824,-0.639903,0.387758,-0.600149
28498,,9.762686,-1.012164,-1.053633,0.008614,0.010809,-0.000262,1.008789,-0.424561,-0.021729,-0.282800,-0.639929,0.387747,-0.600139
28499,,9.731798,-1.039052,-1.043024,-0.003436,0.010585,-0.004705,1.013672,-0.428955,-0.019287,-0.282818,-0.639950,0.387745,-0.600110
28500,,9.714111,-1.053103,-1.016315,-0.013485,0.010736,-0.002795,1.004150,-0.424561,-0.017334,-0.282872,-0.639951,0.387793,-0.600053
28501,,9.691349,-1.026959,-1.016402,-0.011836,0.018457,-0.002249,1.013184,-0.422119,-0.023926,-0.282848,-0.639979,0.387729,-0.600076
28502,,9.694131,-1.046759,-1.000932,-0.007105,0.022937,-0.002804,1.004150,-0.427002,-0.019531,-0.282905,-0.639952,0.387740,-0.600070
28503,,9.681209,-1.059131,-1.014933,0.002826,0.023669,-0.001409,1.010986,-0.422363,-0.017334,-0.282898,-0.639948,0.387689,-0.600110
28504,,9.699298,-1.044598,-1.038482,0.004403,0.020844,0.000192,1.004150,-0.427002,-0.021484,-0.282905,-0.639938,0.387679,-0.600124
28505,,9.697802,-1.031668,-1.192557,0.014896,0.011702,0.004595,1.010986,-0.422119,-0.019531,-0.282800,-0.639987,0.387607,-0.600168
28506,,9.742478,-1.034537,-1.115586,0.006567,0.008910,0.000995,1.008789,-0.422363,-0.017334,-0.282775,-0.640014,0.387610,-0.600150
28507,,9.681331,-1.017930,-1.078313,-0.001907,0.006235,0.004502,1.010986,-0.422119,-0.021729,-0.282743,-0.640039,0.387625,-0.600128
28508,,9.730611,-1.018686,-1.044186,-0.009296,-0.000057,0.000553,1.008789,-0.426758,-0.021729,-0.282752,-0.640071,0.387686,-0.600050
28509,,9.746383,-1.026171,-1.013763,-0.014540,0.015122,0.000848,1.015625,-0.424316,-0.026123,-0.282779,-0.640063,0.387708,-0.600031
28510,,9.739345,-1.007873,-0.983481,-0.007312,0.025471,-0.000009,1.010986,-0.419922,-0.019775,-0.282834,-0.640023,0.387726,-0.600038
28511,,9.713268,-1.032928,-1.013700,-0.002087,0.022488,-0.001860,1.013428,-0.426758,-0.015137,-0.282886,-0.639990,0.387734,-0.600041
28512,,9.700348,-1.045310,-1.027904,-0.003381,0.020377,-0.001960,1.008789,-0.422363,-0.019531,-0.282924,-0.639974,0.387741,-0.600036
28513,,9.725709,-1.048894,-1.080167,0.001724,0.018274,-0.000507,1.010986,-0.422119,-0.019531,-0.282873,-0.640006,0.387663,-0.600077
28514,,9.742980,-1.105357,-1.121531,0.010294,0.019305,-0.003508,1.011230,-0.426758,-0.017334,-0.282870,-0.640016,0.387626,-0.600092
28515,,9.676905,-1.048378,-1.110231,0.015157,0.018965,0.004551,1.017822,-0.422119,-0.017334,-0.282772,-0.640048,0.387534,-0.600163
28516,,9.708351,-1.064000,-1.048927,0.015651,0.011499,0.003253,1.010986,-0.424561,-0.019531,-0.282716,-0.640076,0.387513,-0.600174
28517,,9.729698,-0.999028,-1.042295,0.013509,0.011243,0.004003,1.008789,-0.424561,-0.012939,-0.282628,-0.640120,0.387452,-0.600207
28518,,9.732323,-1.019519,-1.027284,0.012597,0.015509,0.000546,1.006348,-0.422363,-0.017334,-0.282598,-0.640136,0.387426,-0.600221
28519,,9.685788,-1.039105,-1.046082,0.006953,0.015292,-0.002361,1.017822,-0.422119,-0.021729,-0.282532,-0.640187,0.387333,-0.600258
28520,,9.696594,-1.006223,-1.041923,0.001280,0.014312,-0.001463,1.008789,-0.424561,-0.017334,-0.282542,-0.640194,0.387336,-0.600244
28521,,9.717180,-1.011759,-1.052669,-0.000862,0.014055,-0.000714,1.013428,-0.424316,-0.021729,-0.282528,-0.640213,0.387310,-0.600246
28522,,9.712514,-1.013543,-1.009615,-0.001218,0.008441,-0.001160,1.015625,-0.422119,-0.017334,-0.282534,-0.640235,0.387329,-0.600209
28523,,9.712598,-1.013614,-1.008736,0.000048,0.009790,0.002744,1.008789,-0.424561,-0.019531,-0.282499,-0.640261,0.387318,-0.600204
28524,,9.704552,-1.066712,-0.996787,0.007865,0.011030,0.001098,1.006592,-0.424561,-0.017334,-0.282474,-0.640283,0.387314,-0.600195
28525,,9.725871,-1.001762,-0.990314,0.009948,0.009761,0.007957,1.009033,-0.428955,-0.017090,-0.282362,-0.640330,0.387261,-0.600232
28526,,9.736553,-0.969758,-0.986407,0.012662,0.013104,0.004853,1.011230,-0.426758,-0.021729,-0.282314,-0.640345,0.387252,-0.600244
28527,,9.707903,-0.975523,-1.030968,0.010968,0.016815,0.006549,1.001953,-0.427002,-0.023682,-0.282176,-0.640400,0.387139,-0.600323
28528,,9.712793,-0.974334,-1.071667,0.010163,0.007232,0.005157,1.010986,-0.422119,-0.021729,-0.282123,-0.640429,0.387146,-0.600312
28529,,9.712981,-1.016814,-1.001804,0.001744,0.006082,0.001045,1.008789,-0.426758,-0.025879,-0.282087,-0.640466,0.387142,-0.600293
28530,,9.738333,-1.020526,-1.055113,-0.008461,0.010289,-0.001875,1.013672,-0.428955,-0.023682,-0.282121,-0.640473,0.387178,-0.600246
28531,,9.717981,-1.014523,-1.042564,-0.015033,0.001371,-0.002873,1.006348,-0.422363,-0.019531,-0.282106,-0.640531,0.387181,-0.600190
28532,,9.751765,-1.049432,-0.968643,-0.018066,0.014410,0.000961,1.008789,-0.426758,-0.019531,-0.282170,-0.640506,0.387250,-0.600141
28533,,9.746147,-1.080214,-1.011624,-0.016504,0.023788,0.001003,1.010986,-0.419922,-0.021729,-0.282198,-0.640483,0.387242,-0.600158
