// Start Time: Unknown
// Update Rate: 100.0Hz
// Filter Profile: human (46.1)
// Option Flags: AHS Disabled ICC Disabled 
// Firmware Version: 4.3.4
PacketCounter,SampleTimeFine,Acc_X,Acc_Y,Acc_Z,Gyr_X,Gyr_Y,Gyr_Z,Mag_X,Mag_Y,Mag_Z,Quat_q0,Quat_q1,Quat_q2,Quat_q3
27626,,9.852534,0.490368,-0.757251,0.015187,0.005958,-0.012525,0.972900,-0.217529,-0.221680,-0.441823,-0.580158,0.456644,-0.509593
27627,,9.851744,0.556826,-0.789763,0.006641,0.010864,-0.013965,0.975098,-0.217529,-0.219482,-0.441849,-0.580149,0.456604,-0.509618
27628,,9.873587,0.525837,-0.834327,0.004282,0.008703,-0.009253,0.968506,-0.219727,-0.217285,-0.441855,-0.580134,0.456605,-0.509629
27629,,9.878133,0.542473,-0.802846,0.000141,0.012072,-0.012019,0.975098,-0.215332,-0.217285,-0.441896,-0.580103,0.456582,-0.509648
27630,,9.809979,0.525187,-0.782228,-0.005804,0.010803,-0.008248,0.977295,-0.215332,-0.217285,-0.441933,-0.580058,0.456607,-0.509645
27631,,9.825420,0.473924,-0.776203,-0.002773,0.012388,-0.009134,0.974854,-0.208740,-0.217529,-0.441986,-0.580007,0.456606,-0.509658
27632,,9.882688,0.457578,-0.774665,0.004884,0.010249,-0.011428,0.970703,-0.217529,-0.219482,-0.441999,-0.579994,0.456596,-0.509671
27633,,9.838111,0.484602,-0.721748,0.010563,0.009684,-0.011106,0.968262,-0.210938,-0.213379,-0.442022,-0.579974,0.456574,-0.509693
27634,,9.857225,0.514334,-0.718681,0.012438,0.012201,-0.011639,0.966309,-0.215332,-0.213135,-0.442018,-0.579973,0.456540,-0.509727
27635,,9.867353,0.512928,-0.776592,0.009291,0.008712,-0.012747,0.966309,-0.215332,-0.217529,-0.442043,-0.579959,0.456518,-0.509742
27636,,9.856410,0.478419,-0.755786,0.006978,0.010574,-0.012043,0.966309,-0.219727,-0.213135,-0.442052,-0.579952,0.456500,-0.509758
27637,,9.874696,0.469854,-0.791718,0.016358,0.011022,-0.008782,0.968262,-0.210938,-0.213379,-0.442038,-0.579950,0.456453,-0.509815
27638,,9.896642,0.542102,-0.830435,0.014531,0.012526,-0.012250,0.972900,-0.215332,-0.219482,-0.442030,-0.579955,0.456411,-0.509854
27639,,9.843103,0.537827,-0.838236,-0.002775,0.012381,-0.009133,0.972900,-0.213135,-0.219727,-0.442092,-0.579894,0.456423,-0.509858
27640,,9.851300,0.532011,-0.814657,-0.009784,0.020085,-0.013025,0.975098,-0.215332,-0.210938,-0.442174,-0.579828,0.456424,-0.509862
27641,,9.847764,0.452549,-0.809923,-0.008407,0.016964,-0.013458,0.972900,-0.217529,-0.213135,-0.442267,-0.579759,0.456420,-0.509863
27642,,9.839714,0.460761,-0.830387,-0.003109,0.012667,-0.011039,0.975098,-0.213135,-0.215332,-0.442308,-0.579721,0.456426,-0.509865
27643,,9.825920,0.487288,-0.761461,-0.002459,0.018233,-0.017216,0.968506,-0.217529,-0.213135,-0.442391,-0.579676,0.456388,-0.509879
27644,,9.848710,0.495041,-0.766124,-0.002125,0.017946,-0.015303,0.966309,-0.215332,-0.210938,-0.442452,-0.579637,0.456367,-0.509889
27645,,9.890546,0.531442,-0.768774,-0.000968,0.017015,-0.015652,0.970947,-0.221680,-0.212891,-0.442519,-0.579597,0.456331,-0.509909
27646,,9.914181,0.473863,-0.740264,0.002618,0.016126,-0.014707,0.968262,-0.213135,-0.215332,-0.442560,-0.579572,0.456304,-0.509925
27647,,9.884122,0.514147,-0.715145,-0.003552,0.017041,-0.010861,0.979736,-0.219482,-0.210693,-0.442620,-0.579518,0.456285,-0.509952
27648,,9.848949,0.500743,-0.759320,-0.001523,0.019488,-0.017470,0.970703,-0.217529,-0.213135,-0.442689,-0.579481,0.456253,-0.509963
27649,,9.826279,0.496120,-0.751051,-0.001792,0.017655,-0.013383,0.970703,-0.219727,-0.215088,-0.442743,-0.579442,0.456209,-0.509999
27650,,9.871800,0.509863,-0.762256,-0.001903,0.015752,-0.015376,0.970459,-0.210938,-0.217529,-0.442799,-0.579410,0.456192,-0.510002
27651,,9.849107,0.505256,-0.754256,0.000191,0.016080,-0.015990,0.970703,-0.219727,-0.215088,-0.442869,-0.579370,0.456160,-0.510015
27652,,9.834502,0.493609,-0.724366,-0.000412,0.014534,-0.013814,0.972900,-0.217529,-0.208740,-0.442913,-0.579340,0.456147,-0.510023
27653,,9.830160,0.479432,-0.753564,-0.001459,0.011372,-0.015544,0.975098,-0.215332,-0.208740,-0.442958,-0.579323,0.456112,-0.510035
27654,,9.869067,0.473268,-0.714994,0.009568,0.010546,-0.016792,0.970459,-0.210938,-0.211182,-0.442972,-0.579332,0.456074,-0.510047
27655,,9.841703,0.556424,-0.732392,0.014089,0.010919,-0.016110,0.966309,-0.215332,-0.213135,-0.442990,-0.579335,0.456017,-0.510077
27656,,9.879697,0.615382,-0.727084,0.001904,0.012672,-0.014510,0.975098,-0.219727,-0.212891,-0.443026,-0.579317,0.456000,-0.510082
27657,,9.841686,0.559411,-0.730343,-0.014244,0.005583,-0.015846,0.970703,-0.215332,-0.213135,-0.443100,-0.579282,0.456016,-0.510043
27658,,9.855733,0.535985,-0.796645,-0.015137,0.014335,-0.015498,0.966309,-0.217529,-0.208740,-0.443191,-0.579224,0.456036,-0.510012
27659,,9.830183,0.488645,-0.747318,-0.010548,0.006600,-0.012903,0.966309,-0.215332,-0.213135,-0.443252,-0.579186,0.456052,-0.509988
27660,,9.852910,0.496139,-0.752922,0.003618,0.009271,-0.013031,0.970703,-0.213135,-0.219727,-0.443271,-0.579177,0.456043,-0.509991
27661,,9.849159,0.519967,-0.743513,0.003618,0.009270,-0.013030,0.966309,-0.217529,-0.217529,-0.443311,-0.579152,0.456031,-0.509994
27662,,9.907012,0.542312,-0.702961,0.003618,0.009270,-0.013029,0.970459,-0.213135,-0.215332,-0.443330,-0.579142,0.456022,-0.509997
27663,,9.887503,0.476360,-0.743194,0.008803,0.009075,-0.008530,0.970459,-0.213135,-0.213135,-0.443339,-0.579123,0.456006,-0.510025
27664,,9.818372,0.523969,-0.756567,0.020326,0.007898,-0.013939,0.972656,-0.213135,-0.215332,-0.443308,-0.579156,0.455955,-0.510060
27665,,9.868123,0.553230,-0.738187,0.010457,0.007787,-0.013044,0.970703,-0.217529,-0.215332,-0.443327,-0.579149,0.455929,-0.510075
27666,,9.833032,0.539344,-0.783366,0.004057,0.010885,-0.009123,0.968262,-0.213135,-0.215332,-0.443338,-0.579128,0.455926,-0.510092
27667,,9.890362,0.523228,-0.781714,0.003950,0.008981,-0.011117,0.977051,-0.213135,-0.208740,-0.443366,-0.579105,0.455913,-0.510105
27668,,9.867648,0.518199,-0.774324,0.005488,0.011785,-0.013549,0.968750,-0.221924,-0.212891,-0.443386,-0.579094,0.455892,-0.510118
27669,,9.894698,0.541143,-0.749031,0.003832,0.013071,-0.009033,0.970703,-0.217529,-0.213135,-0.443404,-0.579069,0.455859,-0.510161
27670,,9.864436,0.580956,-0.724460,-0.003718,0.011102,-0.008842,0.970215,-0.206787,-0.213379,-0.443437,-0.579029,0.455877,-0.510162
27671,,9.857382,0.523491,-0.711960,-0.011161,0.011036,-0.006656,0.972900,-0.217529,-0.213135,-0.443513,-0.578948,0.455922,-0.510147
27672,,9.873062,0.472294,-0.705856,-0.008238,0.010724,-0.009524,0.975098,-0.217529,-0.210938,-0.443560,-0.578901,0.455949,-0.510135
27673,,9.839476,0.431389,-0.678643,0.003951,0.008981,-0.011110,0.972900,-0.215332,-0.213135,-0.443574,-0.578890,0.455920,-0.510161
27674,,9.850373,0.468209,-0.697471,0.016623,0.012874,-0.012782,0.972900,-0.217529,-0.213135,-0.443563,-0.578900,0.455870,-0.510205
27675,,9.861262,0.504768,-0.716524,0.016199,0.005126,-0.006709,0.968506,-0.215332,-0.206787,-0.443528,-0.578911,0.455838,-0.510251
27676,,9.837550,0.564431,-0.742918,0.012057,0.008477,-0.009475,0.966064,-0.213135,-0.215332,-0.443512,-0.578914,0.455819,-0.510279
27677,,9.880204,0.535261,-0.712944,-0.001729,0.009526,-0.011445,0.966309,-0.215332,-0.210938,-0.443559,-0.578877,0.455822,-0.510278
27678,,9.863691,0.511710,-0.794918,0.000198,0.009934,-0.005984,0.973145,-0.223877,-0.217041,-0.443572,-0.578842,0.455840,-0.510290
27679,,9.830566,0.508693,-0.728671,0.000802,0.011477,-0.008152,0.972656,-0.213135,-0.208984,-0.443588,-0.578815,0.455820,-0.510325
27680,,9.876045,0.521990,-0.740585,0.003574,0.005247,-0.009024,0.975098,-0.215332,-0.208740,-0.443588,-0.578806,0.455831,-0.510325
27681,,9.884114,0.515926,-0.717720,0.001736,0.012736,-0.008412,0.966064,-0.213135,-0.208984,-0.443621,-0.578765,0.455819,-0.510353
27682,,9.894594,0.514537,-0.775458,0.003290,0.009545,-0.014918,0.968262,-0.210938,-0.213379,-0.443646,-0.578759,0.455804,-0.510352
27683,,9.830639,0.512574,-0.724955,-0.002228,0.009884,-0.007278,0.966309,-0.217529,-0.208740,-0.443696,-0.578701,0.455831,-0.510351
27684,,9.819807,0.477689,-0.704126,-0.011267,0.009122,-0.008652,0.977295,-0.215332,-0.210938,-0.443746,-0.578649,0.455872,-0.510329
27685,,9.861084,0.475397,-0.746349,-0.006748,0.009502,-0.007964,0.970703,-0.215332,-0.206787,-0.443788,-0.578602,0.455883,-0.510335
27686,,9.864936,0.453643,-0.754064,0.000320,0.005842,-0.008061,0.977295,-0.215332,-0.206543,-0.443796,-0.578583,0.455904,-0.510332
27687,,9.868127,0.535465,-0.756263,0.007207,0.008383,-0.012057,0.966064,-0.213135,-0.215332,-0.443806,-0.578579,0.455870,-0.510358
27688,,9.884197,0.522733,-0.711625,0.001150,0.005198,-0.010316,0.977295,-0.217529,-0.217285,-0.443815,-0.578569,0.455884,-0.510349
27689,,9.853430,0.524274,-0.726597,0.008801,0.009076,-0.008502,0.972900,-0.215332,-0.213135,-0.443824,-0.578549,0.455868,-0.510378
27690,,9.884223,0.524452,-0.709993,0.004055,0.010880,-0.009102,0.975342,-0.219727,-0.219482,-0.443836,-0.578528,0.455865,-0.510395
27691,,9.857318,0.503378,-0.733305,0.002415,0.006173,-0.008668,0.972900,-0.215332,-0.210938,-0.443847,-0.578511,0.455859,-0.510409
27692,,9.861165,0.481682,-0.741226,0.005670,0.005579,-0.009625,0.972656,-0.213135,-0.213135,-0.443843,-0.578508,0.455862,-0.510414
27693,,9.880039,0.511456,-0.738523,-0.000010,0.006123,-0.009965,0.972656,-0.208740,-0.208984,-0.443874,-0.578479,0.455870,-0.510411
27694,,9.876176,0.534992,-0.729479,-0.010813,0.004740,-0.008828,0.966309,-0.217529,-0.215332,-0.443914,-0.578440,0.455920,-0.510377
27695,,9.861144,0.484684,-0.739544,-0.006954,0.005689,-0.011950,0.968262,-0.213135,-0.213135,-0.443975,-0.578396,0.455950,-0.510346
27696,,9.854169,0.427528,-0.727428,-0.005918,0.008853,-0.010215,0.975098,-0.215332,-0.210938,-0.444014,-0.578360,0.455973,-0.510333
27697,,9.873044,0.457284,-0.724617,0.009256,0.004704,-0.008672,0.972656,-0.213135,-0.210938,-0.444012,-0.578353,0.455966,-0.510349
27698,,9.853104,0.494418,-0.759796,0.018192,0.003567,-0.009286,0.970703,-0.217529,-0.210938,-0.443966,-0.578382,0.455943,-0.510377
27699,,9.841485,0.563106,-0.733881,0.010463,0.007789,-0.013002,0.970459,-0.213135,-0.213135,-0.443973,-0.578385,0.455906,-0.510401
27700,,9.902702,0.524757,-0.740820,0.002084,0.006454,-0.010569,0.975098,-0.213135,-0.215332,-0.443983,-0.578373,0.455914,-0.510397
27701,,9.864989,0.468179,-0.744416,0.000593,0.007663,-0.012126,0.970459,-0.213135,-0.208984,-0.444029,-0.578341,0.455919,-0.510389
27702,,9.849206,0.521251,-0.748779,0.006603,0.006839,-0.009877,0.972656,-0.210938,-0.215332,-0.444026,-0.578338,0.455916,-0.510399
27703,,9.838375,0.486589,-0.728348,0.010692,0.005602,-0.013085,0.972656,-0.213135,-0.213135,-0.444043,-0.578333,0.455901,-0.510403
27704,,9.857212,0.516659,-0.725461,0.002459,0.010182,-0.012644,0.972656,-0.213135,-0.213135,-0.444066,-0.578318,0.455894,-0.510407
27705,,9.853070,0.502004,-0.755252,0.002643,0.003983,-0.008749,0.974854,-0.213135,-0.208984,-0.444087,-0.578293,0.455910,-0.510401
27706,,9.842492,0.505493,-0.695961,-0.004529,0.005732,-0.010650,0.966064,-0.213135,-0.213379,-0.444116,-0.578269,0.455936,-0.510381
27707,,9.869103,0.490348,-0.710063,-0.009277,0.007532,-0.011252,0.968506,-0.217529,-0.210938,-0.444184,-0.578216,0.455968,-0.510353
27708,,9.872983,0.468842,-0.718032,0.007061,0.002466,-0.010049,0.968262,-0.210938,-0.215576,-0.444170,-0.578224,0.455973,-0.510351
27709,,9.883759,0.505633,-0.737550,0.008597,0.005269,-0.012472,0.972656,-0.213135,-0.210938,-0.444183,-0.578221,0.455960,-0.510356
27710,,9.871816,0.536210,-0.750521,0.006273,0.007120,-0.011776,0.972656,-0.213135,-0.215332,-0.444186,-0.578220,0.455952,-0.510361
27711,,9.864905,0.479020,-0.738618,0.005570,0.003673,-0.011604,0.975098,-0.215332,-0.210938,-0.444205,-0.578209,0.455953,-0.510355
27712,,9.860989,0.502751,-0.729492,0.002457,0.010179,-0.012638,0.968506,-0.215332,-0.213135,-0.444228,-0.578194,0.455945,-0.510359
27713,,9.856905,0.488068,-0.758925,0.010661,0.011598,-0.009000,0.968262,-0.213135,-0.211182,-0.444233,-0.578178,0.455913,-0.510402
27714,,9.864929,0.482383,-0.736096,0.007940,0.005830,-0.016276,0.975098,-0.219727,-0.212891,-0.444240,-0.578194,0.455890,-0.510398
27715,,9.845130,0.558326,-0.732088,0.002687,0.007991,-0.012723,0.968506,-0.217529,-0.213135,-0.444265,-0.578182,0.455870,-0.510408
27716,,9.819629,0.510702,-0.683126,-0.001831,0.007602,-0.013416,0.972900,-0.215332,-0.213135,-0.444296,-0.578166,0.455877,-0.510393
27717,,9.868982,0.502156,-0.703449,-0.006349,0.007213,-0.014108,0.977295,-0.213135,-0.213135,-0.444350,-0.578138,0.455880,-0.510376
27718,,9.854245,0.490395,-0.674580,0.000725,0.003564,-0.014196,0.966309,-0.217529,-0.215332,-0.444367,-0.578139,0.455887,-0.510353
27719,,9.842233,0.521230,-0.687969,0.011988,0.000587,-0.015494,0.970703,-0.219727,-0.212891,-0.444362,-0.578167,0.455859,-0.510351
27720,,9.856874,0.535776,-0.716115,0.005242,0.003953,-0.013500,0.972656,-0.213135,-0.210938,-0.444365,-0.578176,0.455856,-0.510341
27721,,9.891491,0.513987,-0.708769,0.004773,-0.001681,-0.013417,0.975098,-0.215332,-0.215332,-0.444362,-0.578196,0.455849,-0.510327
27722,,9.852543,0.484369,-0.785277,0.006174,0.005213,-0.013757,0.972900,-0.215332,-0.213135,-0.444366,-0.578204,0.455840,-0.510323
27723,,9.821898,0.524351,-0.761724,0.004639,0.002410,-0.011335,0.972900,-0.215332,-0.213135,-0.444374,-0.578204,0.455835,-0.510320
27724,,9.821854,0.525541,-0.761466,-0.003465,0.002889,-0.012981,0.972656,-0.210938,-0.213379,-0.444398,-0.578194,0.455858,-0.510289
27725,,9.841789,0.490725,-0.725686,-0.010175,0.000256,-0.015061,0.970703,-0.219727,-0.212891,-0.444462,-0.578167,0.455896,-0.510230
27726,,9.853703,0.462688,-0.712073,-0.009517,-0.000306,-0.011253,0.970459,-0.213135,-0.215332,-0.444493,-0.578148,0.455947,-0.510179
27727,,9.818946,0.486975,-0.719346,-0.004165,-0.000558,-0.012808,0.968262,-0.213135,-0.215332,-0.444518,-0.578143,0.455964,-0.510148
27728,,9.845643,0.510600,-0.695195,0.002624,0.000087,-0.018776,0.968262,-0.213135,-0.215332,-0.444534,-0.578168,0.455961,-0.510109
27729,,9.886915,0.509180,-0.738470,0.007101,-0.003529,-0.014104,0.968506,-0.215332,-0.213135,-0.444539,-0.578183,0.455972,-0.510077
27730,,9.890894,0.526162,-0.708170,0.009059,0.000899,-0.012629,0.974854,-0.210938,-0.211182,-0.444522,-0.578206,0.455969,-0.510069
27731,,9.874763,0.541062,-0.752345,0.003843,-0.002942,-0.013151,0.968506,-0.215332,-0.215332,-0.444531,-0.578215,0.455981,-0.510039
27732,,9.882634,0.497282,-0.769335,0.000954,0.001373,-0.014273,0.975098,-0.213135,-0.215332,-0.444543,-0.578223,0.455993,-0.510010
27733,,9.859875,0.492241,-0.762793,0.003145,0.003616,-0.012886,0.968506,-0.215332,-0.215332,-0.444566,-0.578215,0.455992,-0.510000
27734,,9.847819,0.522774,-0.776207,0.002776,-0.000112,-0.010812,0.970459,-0.213135,-0.217529,-0.444560,-0.578223,0.456011,-0.509979
27735,,9.859834,0.533020,-0.723580,0.003650,0.003250,-0.017036,0.972900,-0.217529,-0.208740,-0.444594,-0.578225,0.456001,-0.509956
27736,,9.863759,0.511753,-0.731941,0.006364,-0.000979,-0.009858,0.974854,-0.213135,-0.210938,-0.444573,-0.578240,0.456017,-0.509943
27737,,9.867712,0.490378,-0.740066,0.012219,0.008411,-0.015471,0.972656,-0.210938,-0.215332,-0.444574,-0.578258,0.455959,-0.509973
27738,,9.867730,0.529971,-0.700614,0.017532,0.004155,-0.013047,0.972656,-0.213135,-0.210938,-0.444541,-0.578292,0.455926,-0.509993
27739,,9.882318,0.506149,-0.767608,0.019531,0.002585,-0.015639,0.975098,-0.215332,-0.213135,-0.444528,-0.578324,0.455884,-0.510006
27740,,9.859599,0.539457,-0.722020,0.009193,0.006809,-0.014605,0.972900,-0.215332,-0.213135,-0.444529,-0.578337,0.455861,-0.510011
27741,,9.855538,0.525076,-0.751946,-0.000443,0.004475,-0.013833,0.972656,-0.210938,-0.211182,-0.444558,-0.578330,0.455853,-0.510001
27742,,9.840823,0.513207,-0.723225,-0.013337,0.002727,-0.012113,0.970703,-0.217529,-0.213135,-0.444608,-0.578297,0.455904,-0.509949
27743,,9.855449,0.489367,-0.790095,-0.006725,0.003462,-0.012021,0.974854,-0.213135,-0.213135,-0.444652,-0.578270,0.455926,-0.509921
27744,,9.840730,0.516018,-0.722487,-0.004454,0.003712,-0.018675,0.970703,-0.215332,-0.215332,-0.444696,-0.578270,0.455933,-0.509877
27745,,9.874031,0.559714,-0.748303,-0.008820,0.003123,-0.011415,0.970459,-0.213135,-0.211182,-0.444745,-0.578236,0.455964,-0.509844
27746,,9.869956,0.583515,-0.739621,-0.013102,0.000539,-0.012197,0.970459,-0.213135,-0.213135,-0.444790,-0.578210,0.456019,-0.509786
27747,,9.871320,0.519791,-0.705709,-0.020747,0.006637,-0.013924,0.972900,-0.215332,-0.210938,-0.444891,-0.578144,0.456069,-0.509727
27748,,9.871315,0.482945,-0.744006,-0.010313,0.004325,-0.012967,0.972900,-0.215332,-0.215332,-0.444939,-0.578116,0.456106,-0.509684
27749,,9.875336,0.461702,-0.751768,0.003604,0.009248,-0.012954,0.968506,-0.215332,-0.210938,-0.444962,-0.578106,0.456079,-0.509701
27750,,9.898002,0.507596,-0.718294,0.007191,0.008385,-0.012001,0.966309,-0.215332,-0.213135,-0.444966,-0.578104,0.456065,-0.509712
27751,,9.843182,0.529605,-0.799329,0.002674,0.007985,-0.012695,0.975098,-0.217529,-0.219482,-0.444988,-0.578093,0.456047,-0.509721
27752,,9.859240,0.517284,-0.754390,0.000016,0.010109,-0.013903,0.970459,-0.210938,-0.217529,-0.445022,-0.578075,0.456042,-0.509716
27753,,9.840535,0.527933,-0.716521,-0.012184,0.011799,-0.012354,0.977051,-0.210938,-0.213135,-0.445106,-0.578012,0.456064,-0.509695
27754,,9.852592,0.500202,-0.702016,-0.019073,0.005338,-0.018413,0.977051,-0.210938,-0.213135,-0.445195,-0.577974,0.456105,-0.509623
27755,,9.871279,0.492650,-0.738100,-0.010876,0.006783,-0.014774,0.966309,-0.215332,-0.210938,-0.445277,-0.577926,0.456132,-0.509581
27756,,9.883337,0.464905,-0.723800,-0.013299,0.006721,-0.016070,0.970703,-0.215332,-0.208740,-0.445347,-0.577892,0.456163,-0.509531
27757,,9.833849,0.476339,-0.702072,-0.003757,0.007160,-0.018826,0.975098,-0.215332,-0.213135,-0.445397,-0.577887,0.456140,-0.509514
27758,,9.871150,0.498055,-0.736204,-0.011151,0.001062,-0.020738,0.975098,-0.217529,-0.210938,-0.445459,-0.577883,0.456164,-0.509443
27759,,9.836273,0.523043,-0.743194,-0.014648,0.003827,-0.019698,0.974854,-0.213135,-0.208984,-0.445529,-0.577870,0.456163,-0.509397
27760,,9.873430,0.583053,-0.738344,-0.026612,0.003321,-0.018235,0.972656,-0.213135,-0.213135,-0.445635,-0.577820,0.456229,-0.509302
27761,,9.873501,0.546918,-0.776562,-0.035192,0.008145,-0.019694,0.968262,-0.210938,-0.213379,-0.445788,-0.577739,0.456286,-0.509209
27762,,9.889521,0.535373,-0.731428,-0.035101,0.010048,-0.017698,0.972656,-0.206543,-0.217773,-0.445932,-0.577651,0.456360,-0.509116
27763,,9.854832,0.522085,-0.776738,-0.022661,0.006187,-0.019337,0.970459,-0.213135,-0.213135,-0.446070,-0.577578,0.456422,-0.509022
27764,,9.854611,0.562361,-0.736983,-0.013957,0.007276,-0.019847,0.975098,-0.217529,-0.217285,-0.446153,-0.577550,0.456442,-0.508964
27765,,9.862583,0.557581,-0.714089,-0.022899,0.008368,-0.019239,0.968262,-0.213135,-0.215332,-0.446260,-0.577502,0.456461,-0.508908
27766,,9.878775,0.507787,-0.708100,-0.020805,0.008710,-0.019838,0.970459,-0.213135,-0.215332,-0.446366,-0.577455,0.456495,-0.508838
27767,,9.866606,0.539132,-0.720645,-0.013867,0.009180,-0.017847,0.970459,-0.208740,-0.211182,-0.446457,-0.577411,0.456507,-0.508797
27768,,9.858547,0.547735,-0.741847,-0.024098,0.005275,-0.014922,0.968506,-0.215332,-0.213135,-0.446551,-0.577354,0.456571,-0.508721
27769,,9.865384,0.531560,-0.830198,-0.021883,0.011532,-0.017490,0.970459,-0.213135,-0.213135,-0.446670,-0.577285,0.456599,-0.508669
27770,,9.833274,0.502472,-0.691828,-0.026904,0.007593,-0.024057,0.972656,-0.213135,-0.215332,-0.446802,-0.577237,0.456639,-0.508573
27771,,9.885248,0.538011,-0.753508,-0.028494,0.010775,-0.017569,0.975098,-0.213135,-0.217529,-0.446933,-0.577161,0.456679,-0.508508
27772,,9.858665,0.517720,-0.776681,-0.017128,0.009753,-0.016879,0.972656,-0.210938,-0.221924,-0.447022,-0.577112,0.456710,-0.508457
27773,,9.835699,0.551263,-0.730271,-0.021045,0.010887,-0.019719,0.977295,-0.213135,-0.213135,-0.447147,-0.577050,0.456733,-0.508397
27774,,9.850059,0.604763,-0.718323,-0.023738,0.008995,-0.016961,0.966064,-0.210938,-0.215576,-0.447254,-0.576989,0.456783,-0.508328
27775,,9.827636,0.561998,-0.749986,-0.037438,0.011847,-0.016943,0.977051,-0.210938,-0.221924,-0.447415,-0.576885,0.456848,-0.508245
27776,,9.876854,0.592409,-0.730666,-0.032954,0.008245,-0.012294,0.972656,-0.206787,-0.219971,-0.447535,-0.576795,0.456935,-0.508163
27777,,9.864993,0.585203,-0.781928,-0.028320,0.014569,-0.013557,0.977295,-0.213135,-0.215332,-0.447688,-0.576680,0.457002,-0.508099
27778,,9.889059,0.566150,-0.714299,-0.030742,0.014502,-0.014846,0.966064,-0.210938,-0.219727,-0.447823,-0.576584,0.457063,-0.508035
27779,,9.878584,0.531578,-0.693155,-0.014206,0.013339,-0.009678,0.972656,-0.208740,-0.211182,-0.447902,-0.576512,0.457088,-0.508024
27780,,9.825245,0.526436,-0.701437,-0.001074,0.012957,-0.011495,0.979248,-0.210938,-0.217529,-0.447939,-0.576479,0.457086,-0.508030
27781,,9.845460,0.491366,-0.664670,0.005208,0.013999,-0.013302,0.970459,-0.210938,-0.211182,-0.447979,-0.576453,0.457053,-0.508055
27782,,9.847983,0.535390,-0.705055,0.014480,0.012641,-0.012015,0.974854,-0.210938,-0.213135,-0.447972,-0.576457,0.457011,-0.508095
27783,,9.821119,0.552561,-0.689312,0.004438,0.008646,-0.015136,0.974854,-0.208740,-0.213379,-0.447999,-0.576451,0.456982,-0.508103
27784,,9.824909,0.569421,-0.658055,0.005333,0.005899,-0.011441,0.970215,-0.206787,-0.215576,-0.448001,-0.576451,0.456980,-0.508103
27785,,9.866462,0.567924,-0.700215,-0.000180,0.010207,-0.007797,0.972656,-0.210938,-0.215332,-0.448046,-0.576398,0.457000,-0.508105
27786,,9.889119,0.575702,-0.705782,-0.007128,0.001835,-0.015857,0.972656,-0.206787,-0.221924,-0.448086,-0.576390,0.457026,-0.508056
27787,,9.901652,0.509625,-0.731159,-0.004296,0.003523,-0.010674,0.972900,-0.215332,-0.215332,-0.448134,-0.576352,0.457063,-0.508023
27788,,9.886949,0.497319,-0.702438,0.003838,0.007099,-0.012983,0.974854,-0.210938,-0.217529,-0.448147,-0.576349,0.457058,-0.508021
27789,,9.826878,0.471899,-0.661414,0.020803,0.003689,-0.013946,0.979248,-0.210938,-0.215332,-0.448105,-0.576397,0.456993,-0.508061
27790,,9.806619,0.509427,-0.696766,0.026402,0.001284,-0.015591,0.970459,-0.210938,-0.215332,-0.448047,-0.576465,0.456936,-0.508087
27791,,9.790127,0.562579,-0.701717,0.024308,0.000934,-0.014987,0.966064,-0.208984,-0.217773,-0.448001,-0.576522,0.456874,-0.508117
27792,,9.781620,0.608878,-0.684672,0.009922,0.000322,-0.014821,0.966064,-0.208984,-0.217773,-0.447986,-0.576553,0.456864,-0.508105
27793,,9.839509,0.555960,-0.723099,0.003443,-0.008539,-0.013053,0.974854,-0.210938,-0.215332,-0.447991,-0.576568,0.456905,-0.508047
27794,,9.874294,0.534240,-0.716575,0.008368,-0.006500,-0.008473,0.970459,-0.210938,-0.213379,-0.447948,-0.576599,0.456932,-0.508025
27795,,9.893994,0.537226,-0.642577,0.018184,-0.004198,-0.015266,0.977051,-0.210938,-0.215332,-0.447908,-0.576656,0.456898,-0.508026
27796,,9.836299,0.554659,-0.644371,0.019923,-0.007579,-0.013812,0.974609,-0.204590,-0.217773,-0.447844,-0.576728,0.456882,-0.508016
27797,,9.828145,0.562729,-0.667495,0.028187,-0.012099,-0.014255,0.977051,-0.208740,-0.219727,-0.447772,-0.576811,0.456860,-0.508005
27798,,9.840227,0.534629,-0.655357,0.038058,-0.011903,-0.015104,0.970459,-0.210938,-0.215332,-0.447648,-0.576937,0.456804,-0.508021
27799,,9.850941,0.533473,-0.715407,0.040562,-0.009932,-0.011814,0.977295,-0.213135,-0.219482,-0.447531,-0.577044,0.456745,-0.508057
27800,,9.880535,0.523060,-0.812096,0.042656,-0.009586,-0.012406,0.972656,-0.210938,-0.215332,-0.447392,-0.577168,0.456680,-0.508096
27801,,9.914880,0.539398,-0.766892,0.039393,-0.009019,-0.011452,0.966064,-0.208740,-0.213379,-0.447267,-0.577279,0.456609,-0.508143
27802,,9.879814,0.562973,-0.775365,0.026177,-0.010555,-0.011636,0.968262,-0.213135,-0.213135,-0.447172,-0.577368,0.456590,-0.508143
27803,,9.846612,0.521631,-0.750399,0.029464,-0.007122,-0.016530,0.981445,-0.206543,-0.213379,-0.447098,-0.577459,0.456535,-0.508155
27804,,9.796905,0.532029,-0.730587,0.030936,-0.012322,-0.011024,0.966064,-0.208740,-0.213379,-0.446983,-0.577560,0.456510,-0.508162
27805,,9.850112,0.539487,-0.722290,0.035719,-0.010086,-0.014367,0.970459,-0.210938,-0.211182,-0.446893,-0.577656,0.456463,-0.508175
27806,,9.852297,0.583100,-0.765415,0.035451,-0.011906,-0.010317,0.975098,-0.213135,-0.215332,-0.446764,-0.577765,0.456427,-0.508196
27807,,9.875258,0.552387,-0.811731,0.034305,-0.006989,-0.013920,0.966064,-0.210938,-0.208984,-0.446661,-0.577869,0.456355,-0.508234
27808,,9.860512,0.540085,-0.784398,0.031288,-0.008604,-0.013061,0.970459,-0.213135,-0.211182,-0.446559,-0.577967,0.456315,-0.508248
27809,,9.860382,0.541063,-0.785359,0.034633,-0.007268,-0.012015,0.968262,-0.208740,-0.211182,-0.446448,-0.578068,0.456248,-0.508291
27810,,9.859816,0.580367,-0.747159,0.025113,-0.003742,-0.013226,0.974854,-0.206543,-0.213379,-0.446376,-0.578140,0.456212,-0.508305
27811,,9.890866,0.543117,-0.770847,0.019675,-0.005429,-0.013665,0.970703,-0.215332,-0.210938,-0.446341,-0.578185,0.456199,-0.508295
27812,,9.876155,0.530845,-0.743276,0.016987,-0.007318,-0.010915,0.970703,-0.213135,-0.219727,-0.446278,-0.578243,0.456199,-0.508285
27813,,9.817973,0.586116,-0.706194,0.018834,-0.004787,-0.011423,0.977295,-0.213135,-0.215332,-0.446210,-0.578307,0.456161,-0.508305
27814,,9.781833,0.598120,-0.825490,0.015817,-0.006401,-0.010568,0.977051,-0.208740,-0.217529,-0.446152,-0.578359,0.456162,-0.508296
27815,,9.820488,0.592170,-0.788414,0.009539,-0.007444,-0.008771,0.970459,-0.210938,-0.217529,-0.446114,-0.578390,0.456175,-0.508283
27816,,9.861870,0.590381,-0.832203,0.007446,-0.007792,-0.008172,0.970459,-0.208740,-0.221924,-0.446071,-0.578421,0.456208,-0.508256
27817,,9.878352,0.539538,-0.827722,0.003526,-0.006674,-0.011019,0.974854,-0.206543,-0.213379,-0.446071,-0.578430,0.456246,-0.508211
27818,,9.851352,0.556287,-0.813533,0.003691,-0.002853,-0.007055,0.975098,-0.213135,-0.217529,-0.446047,-0.578438,0.456280,-0.508193
27819,,9.873456,0.602027,-0.781257,-0.005338,-0.003697,-0.008449,0.972656,-0.210938,-0.211182,-0.446065,-0.578421,0.456330,-0.508151
27820,,9.793584,0.573890,-0.815218,-0.004415,-0.002432,-0.008704,0.974854,-0.210938,-0.219727,-0.446070,-0.578413,0.456380,-0.508111
27821,,9.793519,0.574725,-0.815405,-0.009770,-0.002210,-0.007164,0.970459,-0.208740,-0.226318,-0.446096,-0.578384,0.456436,-0.508071
27822,,9.945934,0.563646,-0.847869,-0.026493,-0.000998,-0.006329,0.970703,-0.217529,-0.215332,-0.446161,-0.578318,0.456546,-0.507991
27823,,9.974877,0.483624,-0.828771,-0.027316,0.003643,-0.008044,0.970703,-0.213135,-0.221924,-0.446249,-0.578240,0.456629,-0.507927
27824,,9.880032,0.480601,-0.794726,-0.014430,0.005459,-0.009742,0.970215,-0.206787,-0.217773,-0.446303,-0.578193,0.456683,-0.507885
27825,,9.836477,0.549160,-0.784646,-0.006324,0.005040,-0.008094,0.970459,-0.208740,-0.217773,-0.446350,-0.578145,0.456727,-0.507860
27826,,9.844551,0.543348,-0.761933,-0.000293,0.008270,-0.009802,0.972656,-0.210938,-0.215332,-0.446369,-0.578122,0.456739,-0.507858
27827,,9.852627,0.537730,-0.739022,-0.006306,0.009037,-0.012047,0.972656,-0.210938,-0.217529,-0.446430,-0.578076,0.456756,-0.507840
27828,,9.861222,0.493597,-0.755020,0.006972,0.008496,-0.005916,0.970459,-0.208740,-0.221924,-0.446420,-0.578060,0.456760,-0.507864
27829,,9.869306,0.487595,-0.732294,0.024208,0.006920,-0.010880,0.970459,-0.208740,-0.217773,-0.446389,-0.578082,0.456713,-0.507909
27830,,9.848344,0.562694,-0.728662,0.030140,0.004242,-0.010611,0.968262,-0.208740,-0.217773,-0.446313,-0.578139,0.456655,-0.507963
27831,,9.811091,0.543619,-0.693931,0.032151,0.002679,-0.013186,0.972656,-0.210938,-0.217529,-0.446260,-0.578190,0.456597,-0.508003
27832,,9.831478,0.508470,-0.658322,0.029199,-0.001023,-0.006394,0.974854,-0.210938,-0.217529,-0.446165,-0.578249,0.456564,-0.508050
27833,,9.835720,0.486639,-0.667074,0.034145,-0.002883,-0.011801,0.972900,-0.219727,-0.215088,-0.446077,-0.578328,0.456501,-0.508095
27834,,9.862040,0.510077,-0.643421,0.043092,-0.003947,-0.012377,0.972656,-0.208740,-0.217529,-0.445949,-0.578438,0.456422,-0.508151
27835,,9.846352,0.485734,-0.727101,0.058381,-0.006048,-0.008803,0.974854,-0.208740,-0.217529,-0.445758,-0.578588,0.456293,-0.508264
27836,,9.847903,0.567066,-0.731221,0.058381,-0.006053,-0.008789,0.972656,-0.210938,-0.215332,-0.445572,-0.578730,0.456191,-0.508357
27837,,9.866119,0.596694,-0.730275,0.049008,-0.010629,-0.008114,0.970459,-0.213135,-0.217529,-0.445421,-0.578847,0.456125,-0.508416
27838,,9.942522,0.571974,-0.767031,0.043404,-0.008226,-0.006488,0.972656,-0.210938,-0.213379,-0.445268,-0.578956,0.456072,-0.508474
27839,,9.891231,0.500667,-0.743783,0.037720,-0.007736,-0.006843,0.970459,-0.213135,-0.213135,-0.445141,-0.579047,0.456021,-0.508527
27840,,9.815180,0.487498,-0.747865,0.045907,-0.006238,-0.003198,0.968506,-0.215332,-0.219727,-0.444977,-0.579149,0.455966,-0.508603
27841,,9.854413,0.550148,-0.825605,0.046008,-0.008268,-0.011187,0.975098,-0.213135,-0.217529,-0.444827,-0.579277,0.455875,-0.508671
27842,,9.881275,0.534655,-0.840905,0.043910,-0.000687,-0.004574,0.968262,-0.213135,-0.217529,-0.444685,-0.579363,0.455809,-0.508755
27843,,9.865062,0.547890,-0.885472,0.044159,-0.002874,-0.004647,0.970459,-0.213135,-0.217529,-0.444544,-0.579452,0.455736,-0.508843
27844,,9.817581,0.599843,-0.907044,0.033974,0.001177,-0.009677,0.968506,-0.215332,-0.217529,-0.444448,-0.579523,0.455677,-0.508899
27845,,9.827773,0.636303,-0.927017,0.019094,0.004919,-0.009396,0.975098,-0.215332,-0.217285,-0.444406,-0.579550,0.455634,-0.508943
27846,,9.894084,0.575998,-0.941875,0.006042,0.007208,-0.005668,0.970459,-0.210938,-0.215332,-0.444394,-0.579534,0.455644,-0.508962
27847,,9.894147,0.576511,-0.940901,-0.003403,0.012642,-0.004944,0.968506,-0.215332,-0.213135,-0.444427,-0.579479,0.455656,-0.508986
27848,,9.887800,0.557236,-0.888881,-0.017033,0.017381,-0.003031,0.966064,-0.213135,-0.215332,-0.444499,-0.579380,0.455710,-0.508987
27849,,9.873395,0.544733,-0.858418,-0.030480,0.022002,-0.007135,0.975098,-0.215332,-0.215332,-0.444631,-0.579250,0.455761,-0.508974
27850,,9.877295,0.561493,-0.825733,-0.029822,0.021466,-0.003342,0.968262,-0.208740,-0.217773,-0.444750,-0.579113,0.455837,-0.508958
27851,,9.866639,0.564836,-0.764516,-0.027057,0.025260,-0.004105,0.974854,-0.210938,-0.215332,-0.444885,-0.578965,0.455893,-0.508959
27852,,9.862469,0.588168,-0.753475,-0.038754,0.026509,-0.006728,0.968506,-0.215332,-0.213135,-0.445050,-0.578803,0.455971,-0.508929
27853,,9.891777,0.508072,-0.731394,-0.043454,0.026192,-0.001406,0.972900,-0.217529,-0.210938,-0.445219,-0.578617,0.456064,-0.508909
27854,,9.857562,0.492373,-0.774934,-0.028494,0.024369,0.000299,0.968506,-0.215332,-0.217529,-0.445331,-0.578467,0.456141,-0.508912
27855,,9.869501,0.501998,-0.719828,-0.027900,0.025902,-0.001844,0.975098,-0.217529,-0.210938,-0.445437,-0.578333,0.456175,-0.508941
27856,,9.811985,0.518198,-0.718770,-0.025981,0.018432,-0.002431,0.972900,-0.213135,-0.217529,-0.445536,-0.578210,0.456251,-0.508926
27857,,9.857425,0.531813,-0.728863,-0.032008,0.027115,0.001333,0.972900,-0.215332,-0.215332,-0.445654,-0.578052,0.456306,-0.508952
27858,,9.884584,0.516356,-0.740872,-0.032241,0.021371,-0.004597,0.975098,-0.213135,-0.219727,-0.445782,-0.577913,0.456385,-0.508927
27859,,9.856169,0.451771,-0.720888,-0.016955,0.019283,-0.001005,0.972900,-0.215332,-0.219482,-0.445856,-0.577805,0.456425,-0.508950
27860,,9.830862,0.548764,-0.707557,-0.004069,0.021105,-0.002668,0.970459,-0.210938,-0.215332,-0.445898,-0.577724,0.456438,-0.508993
27861,,9.857291,0.571583,-0.681434,-0.008928,0.016958,-0.001314,0.972656,-0.213135,-0.210938,-0.445951,-0.577633,0.456471,-0.509020
27862,,9.842764,0.558514,-0.651440,-0.003570,0.016738,-0.002838,0.970459,-0.210938,-0.217529,-0.445982,-0.577566,0.456493,-0.509050
27863,,9.808549,0.542813,-0.696139,0.000021,0.015900,-0.001876,0.970703,-0.213135,-0.221924,-0.446012,-0.577495,0.456508,-0.509090
27864,,9.825363,0.491150,-0.689579,0.002593,0.007894,0.001310,0.970703,-0.217529,-0.215332,-0.445995,-0.577454,0.456545,-0.509119
27865,,9.876629,0.562815,-0.712841,0.010044,0.008023,-0.000806,0.968262,-0.213135,-0.217529,-0.445963,-0.577435,0.456542,-0.509171
27866,,9.886781,0.491411,-0.656087,0.002287,0.012152,-0.004534,0.975342,-0.219727,-0.217285,-0.445971,-0.577396,0.456554,-0.509198
27867,,9.856187,0.491402,-0.671090,0.011867,0.006567,0.002642,0.970703,-0.215332,-0.213135,-0.445915,-0.577382,0.456552,-0.509264
27868,,9.841581,0.477806,-0.642400,0.016553,0.002898,0.001285,0.968262,-0.213135,-0.217529,-0.445845,-0.577385,0.456565,-0.509310
27869,,9.905906,0.481784,-0.691327,0.014383,0.000636,-0.000102,0.968262,-0.208740,-0.217773,-0.445788,-0.577387,0.456576,-0.509347
27870,,9.879624,0.459232,-0.715482,0.026944,0.002727,-0.003649,0.977051,-0.208740,-0.215332,-0.445701,-0.577425,0.456549,-0.509406
27871,,9.848959,0.459259,-0.731524,0.038811,-0.002619,-0.003074,0.970703,-0.215332,-0.217529,-0.445607,-0.577468,0.456532,-0.509455
27872,,9.856377,0.598698,-0.746950,0.018418,-0.002497,-0.005238,0.968506,-0.217529,-0.217285,-0.445537,-0.577503,0.456533,-0.509475
27873,,9.873085,0.547188,-0.741739,0.006856,-0.001407,0.000035,0.970703,-0.215332,-0.215332,-0.445489,-0.577500,0.456561,-0.509496
27874,,9.805109,0.527373,-0.723402,-0.004665,-0.004257,-0.004669,0.970703,-0.217529,-0.213135,-0.445479,-0.577487,0.456627,-0.509459
27875,,9.811703,0.547543,-0.774183,-0.005185,-0.003877,-0.000544,0.975098,-0.215332,-0.213135,-0.445458,-0.577468,0.456684,-0.509448
27876,,9.832038,0.511975,-0.738755,-0.007354,-0.006139,-0.001932,0.972900,-0.219727,-0.217285,-0.445445,-0.577448,0.456768,-0.509406
27877,,9.866999,0.489966,-0.731674,0.002787,-0.004129,-0.006781,0.975098,-0.215332,-0.215332,-0.445410,-0.577468,0.456779,-0.509405
27878,,9.893964,0.474468,-0.746627,0.012464,-0.003810,-0.001572,0.968506,-0.215332,-0.215332,-0.445345,-0.577485,0.456809,-0.509416
27879,,9.877169,0.526276,-0.752648,0.010294,-0.006073,-0.002959,0.970703,-0.215332,-0.217529,-0.445288,-0.577505,0.456834,-0.509421
27880,,9.844189,0.484444,-0.726915,0.006321,-0.002896,-0.011748,0.970703,-0.215332,-0.219482,-0.445268,-0.577529,0.456848,-0.509398
27881,,9.865234,0.410929,-0.730412,0.003017,-0.010298,-0.002910,0.975098,-0.217529,-0.215088,-0.445228,-0.577539,0.456906,-0.509370
27882,,9.827864,0.391577,-0.696892,0.017267,-0.009506,-0.010919,0.975098,-0.217529,-0.219482,-0.445159,-0.577603,0.456910,-0.509355
27883,,9.897170,0.493374,-0.720160,0.016922,-0.013224,-0.008855,0.970703,-0.215332,-0.215332,-0.445071,-0.577679,0.456902,-0.509353
27884,,9.897040,0.494164,-0.721405,0.010987,-0.010553,-0.009142,0.975098,-0.215332,-0.219482,-0.445013,-0.577727,0.456929,-0.509324
27885,,9.858218,0.501616,-0.760516,0.007320,-0.011632,-0.012082,0.972900,-0.215332,-0.210938,-0.444979,-0.577773,0.456949,-0.509284
27886,,9.841290,0.554331,-0.767189,-0.000131,-0.011761,-0.009969,0.975098,-0.215332,-0.217285,-0.444952,-0.577802,0.457004,-0.509224
27887,,9.838226,0.500762,-0.837391,0.001117,-0.010763,-0.008329,0.970703,-0.215332,-0.217529,-0.444924,-0.577827,0.457043,-0.509186
27888,,9.859995,0.546980,-0.805959,0.002556,-0.009879,-0.012705,0.968506,-0.215332,-0.210938,-0.444901,-0.577863,0.457080,-0.509132
27889,,9.837939,0.502886,-0.839486,-0.000131,-0.011762,-0.009966,0.970703,-0.215332,-0.208740,-0.444879,-0.577889,0.457124,-0.509082
27890,,9.864106,0.526545,-0.816155,0.001210,-0.004863,-0.010306,0.966309,-0.215332,-0.219727,-0.444866,-0.577904,0.457160,-0.509044
27891,,9.882993,0.518423,-0.853117,-0.005053,-0.001927,-0.012485,0.970459,-0.213135,-0.215332,-0.444887,-0.577900,0.457188,-0.509005
27892,,9.872721,0.483736,-0.833249,-0.000213,-0.001763,-0.009883,0.975098,-0.213135,-0.217529,-0.444884,-0.577903,0.457222,-0.508974
27893,,9.890169,0.552477,-0.792549,0.001628,0.000769,-0.010391,0.970703,-0.215332,-0.217529,-0.444900,-0.577891,0.457245,-0.508952
27894,,9.849244,0.517456,-0.788465,0.003379,-0.002598,-0.008920,0.970459,-0.208740,-0.224121,-0.444882,-0.577902,0.457274,-0.508929
27895,,9.857224,0.511947,-0.766496,0.004566,0.000469,-0.013212,0.968506,-0.219727,-0.223877,-0.444910,-0.577893,0.457298,-0.508894
27896,,9.830892,0.490237,-0.790724,0.004627,-0.001600,-0.007281,0.968262,-0.213135,-0.217529,-0.444886,-0.577900,0.457327,-0.508881
27897,,9.861496,0.491315,-0.775158,0.009581,-0.003466,-0.012669,0.970703,-0.215332,-0.219482,-0.444862,-0.577933,0.457321,-0.508869
27898,,9.865070,0.508252,-0.745088,0.007892,-0.002167,-0.008209,0.966309,-0.215332,-0.219727,-0.444830,-0.577952,0.457340,-0.508860
27899,,9.861368,0.493272,-0.775545,0.003393,0.001384,-0.012872,0.975342,-0.219727,-0.217285,-0.444841,-0.577954,0.457345,-0.508843
27900,,9.861306,0.494394,-0.775620,0.000959,-0.002683,-0.010217,0.966064,-0.213135,-0.215332,-0.444833,-0.577963,0.457376,-0.508811
27901,,9.864858,0.511513,-0.745665,-0.004549,-0.006299,-0.012646,0.966309,-0.215332,-0.213135,-0.444837,-0.577978,0.457404,-0.508766
27902,,9.836392,0.447551,-0.728202,-0.010751,-0.005433,-0.008896,0.968506,-0.213135,-0.223877,-0.444853,-0.577964,0.457476,-0.508703
27903,,9.836282,0.448870,-0.728872,-0.003779,-0.008866,-0.016849,0.972900,-0.215332,-0.217529,-0.444877,-0.577982,0.457516,-0.508626
27904,,9.876964,0.486281,-0.734097,0.007326,-0.011631,-0.012069,0.966309,-0.219727,-0.213135,-0.444835,-0.578032,0.457546,-0.508580
27905,,9.846143,0.487288,-0.751033,0.012431,-0.009664,-0.013505,0.968506,-0.215332,-0.215332,-0.444775,-0.578102,0.457527,-0.508569
27906,,9.864972,0.479073,-0.788839,0.011247,-0.012731,-0.009212,0.970703,-0.213135,-0.223877,-0.444712,-0.578157,0.457558,-0.508534
27907,,9.846327,0.558364,-0.867835,0.000151,-0.005986,-0.017943,0.970703,-0.213135,-0.219727,-0.444732,-0.578179,0.457576,-0.508474
27908,,9.839716,0.540103,-0.817991,-0.009062,-0.006740,-0.013346,0.966309,-0.215332,-0.219727,-0.444752,-0.578183,0.457634,-0.508401
27909,,9.870287,0.541656,-0.802633,-0.012580,-0.003992,-0.012333,0.970703,-0.215332,-0.221680,-0.444799,-0.578159,0.457696,-0.508330
27910,,9.866542,0.526995,-0.833348,-0.012580,-0.003992,-0.012332,0.968262,-0.213135,-0.215332,-0.444833,-0.578146,0.457759,-0.508259
27911,,9.878981,0.499009,-0.819679,-0.005826,0.000629,-0.008269,0.975098,-0.215332,-0.219482,-0.444858,-0.578119,0.457803,-0.508229
27912,,9.868826,0.464326,-0.799618,0.003312,-0.000532,-0.014839,0.970703,-0.215332,-0.221680,-0.444860,-0.578138,0.457810,-0.508199
27913,,9.846136,0.458985,-0.793555,0.011343,-0.002843,-0.015144,0.970703,-0.217529,-0.219482,-0.444838,-0.578180,0.457789,-0.508189
27914,,9.876742,0.460508,-0.777969,0.011418,-0.000926,-0.013170,0.975098,-0.215332,-0.217285,-0.444811,-0.578214,0.457782,-0.508180
27915,,9.867777,0.507016,-0.761504,0.006248,-0.000832,-0.017656,0.974854,-0.208740,-0.221924,-0.444806,-0.578253,0.457751,-0.508168
27916,,9.838639,0.482133,-0.704867,0.000563,-0.000355,-0.018024,0.972900,-0.215332,-0.226074,-0.444824,-0.578273,0.457756,-0.508125
27917,,9.903530,0.449591,-0.793027,-0.002784,-0.005691,-0.015114,0.964111,-0.215332,-0.217529,-0.444860,-0.578271,0.457802,-0.508055
27918,,9.868267,0.473542,-0.801111,0.002245,-0.005637,-0.018524,0.972656,-0.206787,-0.221924,-0.444862,-0.578309,0.457813,-0.507999
27919,,9.820451,0.526747,-0.822837,-0.001604,-0.002626,-0.019400,0.975098,-0.213135,-0.217529,-0.444915,-0.578308,0.457842,-0.507928
27920,,9.861049,0.564984,-0.827321,-0.008866,-0.002888,-0.023292,0.964111,-0.217529,-0.217529,-0.444968,-0.578325,0.457862,-0.507844
27921,,9.850865,0.531192,-0.807612,-0.010889,-0.005306,-0.016775,0.977051,-0.210938,-0.219727,-0.445003,-0.578333,0.457893,-0.507778
27922,,9.855214,0.510637,-0.816111,-0.007874,0.000297,-0.021571,0.970459,-0.210938,-0.226074,-0.445056,-0.578340,0.457908,-0.507709
27923,,9.828035,0.528336,-0.801616,-0.009053,-0.002771,-0.017281,0.977295,-0.215332,-0.223877,-0.445123,-0.578320,0.457958,-0.507628
27924,,9.836011,0.523719,-0.779766,-0.004025,-0.002714,-0.020690,0.970703,-0.213135,-0.221924,-0.445156,-0.578342,0.457972,-0.507561
27925,,9.856560,0.490049,-0.744321,0.000155,-0.005990,-0.017923,0.972900,-0.215332,-0.223877,-0.445168,-0.578372,0.457980,-0.507509
27926,,9.852808,0.475969,-0.775264,0.004009,-0.005017,-0.020994,0.966309,-0.215332,-0.217529,-0.445173,-0.578418,0.457978,-0.507454
27927,,9.887844,0.455870,-0.768329,0.012631,-0.005784,-0.023443,0.968506,-0.219727,-0.217285,-0.445155,-0.578495,0.457931,-0.507425
27928,,9.853398,0.441599,-0.815135,0.012116,-0.005401,-0.019326,0.968262,-0.208740,-0.215576,-0.445132,-0.578556,0.457914,-0.507391
27929,,9.853268,0.443405,-0.815731,0.021984,-0.005164,-0.020140,0.972900,-0.217529,-0.219482,-0.445080,-0.578643,0.457852,-0.507392
27930,,9.847722,0.506263,-0.769539,0.033285,-0.008024,-0.021370,0.972900,-0.213135,-0.219727,-0.444995,-0.578763,0.457782,-0.507395
27931,,9.826817,0.543847,-0.806168,0.025508,-0.003931,-0.025091,0.972900,-0.215332,-0.219482,-0.444942,-0.578872,0.457685,-0.507403
27932,,9.897131,0.570205,-0.906383,0.022901,-0.003901,-0.020383,0.968262,-0.213135,-0.221924,-0.444894,-0.578956,0.457634,-0.507395
27933,,9.865373,0.610265,-0.883958,0.018131,-0.002164,-0.021004,0.972656,-0.210938,-0.226074,-0.444865,-0.579028,0.457575,-0.507393
27934,,9.881487,0.599114,-0.839969,-0.001534,-0.000728,-0.017407,0.975098,-0.215332,-0.219482,-0.444887,-0.579042,0.457588,-0.507345
27935,,9.880500,0.519990,-0.836512,0.001731,-0.001287,-0.018333,0.977295,-0.213135,-0.223877,-0.444907,-0.579064,0.457582,-0.507308
27936,,9.835280,0.508018,-0.823744,0.015336,0.005951,-0.018197,0.972900,-0.213135,-0.226074,-0.444898,-0.579100,0.457535,-0.507317
27937,,9.842405,0.541667,-0.762695,0.015008,0.002235,-0.016133,0.972900,-0.215332,-0.221680,-0.444883,-0.579137,0.457494,-0.507325
27938,,9.846881,0.520474,-0.770826,0.019850,0.002419,-0.013537,0.972656,-0.210938,-0.224121,-0.444841,-0.579182,0.457457,-0.507344
27939,,9.871177,0.570950,-0.819121,0.022527,0.004305,-0.016268,0.970459,-0.210938,-0.226074,-0.444808,-0.579231,0.457392,-0.507375
27940,,9.930721,0.599265,-0.859680,0.017240,0.006428,-0.012782,0.968262,-0.210938,-0.221924,-0.444780,-0.579259,0.457355,-0.507402
27941,,9.814280,0.549981,-0.858047,0.015149,0.006073,-0.012190,0.972900,-0.213135,-0.219727,-0.444780,-0.579263,0.457336,-0.507415
27942,,9.846736,0.593730,-0.883873,0.012799,0.007900,-0.011520,0.975098,-0.213135,-0.221680,-0.444765,-0.579274,0.457311,-0.507438
27943,,9.836855,0.559070,-0.862836,-0.001255,0.010918,-0.013482,0.977051,-0.210938,-0.217529,-0.444806,-0.579250,0.457295,-0.507444
27944,,9.862228,0.502149,-0.834311,-0.013797,0.004810,-0.005994,0.966064,-0.206787,-0.224121,-0.444847,-0.579197,0.457360,-0.507410
27945,,9.835121,0.518850,-0.818878,-0.008117,0.012297,-0.013518,0.968506,-0.213135,-0.226074,-0.444940,-0.579129,0.457391,-0.507378
27946,,9.859508,0.500859,-0.751296,-0.001515,0.013101,-0.013398,0.966064,-0.208984,-0.224121,-0.444983,-0.579099,0.457384,-0.507379
27947,,9.843310,0.514958,-0.794255,0.004501,0.012376,-0.011137,0.972656,-0.210938,-0.226074,-0.445026,-0.579059,0.457385,-0.507387
27948,,9.875078,0.477846,-0.815687,0.012934,0.015720,-0.011525,0.972900,-0.215332,-0.221680,-0.445029,-0.579051,0.457341,-0.507433
27949,,9.854341,0.514203,-0.850352,0.024568,0.012611,-0.010853,0.968262,-0.213135,-0.219727,-0.444996,-0.579071,0.457269,-0.507504
27950,,9.849844,0.537606,-0.840603,0.026793,0.020782,-0.011453,0.972900,-0.213135,-0.221680,-0.444970,-0.579080,0.457180,-0.507597
27951,,9.814690,0.560520,-0.846460,0.020780,0.017531,-0.009764,0.970703,-0.213135,-0.219727,-0.444955,-0.579078,0.457108,-0.507677
27952,,9.827449,0.532795,-0.830966,0.016131,0.017207,-0.018352,0.970703,-0.215332,-0.219482,-0.444969,-0.579088,0.457034,-0.507720
27953,,9.850101,0.540774,-0.835551,0.016665,0.018740,-0.006617,0.972656,-0.208740,-0.221924,-0.444953,-0.579073,0.456971,-0.507808
27954,,9.831133,0.550885,-0.797144,0.015352,0.019780,-0.014160,0.970703,-0.213135,-0.219727,-0.444965,-0.579066,0.456905,-0.507866
27955,,9.864756,0.556081,-0.860538,0.019798,0.014337,-0.011462,0.977051,-0.210938,-0.217529,-0.444964,-0.579060,0.456854,-0.507918
27956,,9.853829,0.559885,-0.800385,0.011758,0.016623,-0.011175,0.972656,-0.210938,-0.215332,-0.444972,-0.579046,0.456813,-0.507965
27957,,9.834794,0.570054,-0.762431,0.004831,0.012104,-0.009241,0.972900,-0.215332,-0.215332,-0.444997,-0.579013,0.456802,-0.507989
27958,,9.816868,0.541627,-0.763228,-0.002098,0.011555,-0.011256,0.970703,-0.213135,-0.219727,-0.445033,-0.578981,0.456807,-0.507989
27959,,9.860246,0.514278,-0.732310,0.003589,0.011094,-0.010872,0.970459,-0.210938,-0.221924,-0.445046,-0.578968,0.456780,-0.508018
27960,,9.846942,0.463192,-0.741464,0.005420,0.009662,-0.007431,0.972900,-0.213135,-0.219727,-0.445047,-0.578949,0.456781,-0.508038
27961,,9.853374,0.483834,-0.791102,0.021171,0.009319,-0.013824,0.966064,-0.213135,-0.219727,-0.445031,-0.578970,0.456724,-0.508079
27962,,9.845911,0.572372,-0.816223,0.018752,0.009221,-0.015123,0.968262,-0.206787,-0.221924,-0.445011,-0.578999,0.456670,-0.508112
27963,,9.860410,0.586605,-0.843852,0.008101,0.007575,-0.006207,0.963867,-0.210938,-0.215576,-0.445026,-0.578963,0.456693,-0.508119
27964,,9.796162,0.582875,-0.794035,-0.000659,0.008454,-0.011665,0.974854,-0.210938,-0.221924,-0.445051,-0.578943,0.456700,-0.508113
27965,,9.839512,0.555567,-0.763449,-0.007848,0.006116,-0.009658,0.968750,-0.221924,-0.223633,-0.445108,-0.578893,0.456744,-0.508082
27966,,9.838934,0.475477,-0.758999,-0.000592,0.006409,-0.005753,0.972656,-0.206787,-0.219971,-0.445114,-0.578865,0.456772,-0.508083
27967,,9.825008,0.543939,-0.733978,0.010912,0.003432,-0.012936,0.975098,-0.217529,-0.221680,-0.445099,-0.578887,0.456745,-0.508096
27968,,9.829617,0.522218,-0.741999,0.011307,0.001129,-0.005139,0.970459,-0.210938,-0.217529,-0.445057,-0.578897,0.456757,-0.508110
27969,,9.858604,0.549343,-0.798401,0.013459,0.007376,-0.007703,0.970703,-0.215332,-0.219482,-0.445028,-0.578906,0.456724,-0.508155
27970,,9.851735,0.517745,-0.858724,0.009738,0.000376,-0.008656,0.970703,-0.215332,-0.226074,-0.444997,-0.578922,0.456732,-0.508156
27971,,9.873049,0.564122,-0.826356,-0.000394,0.002302,-0.007796,0.975098,-0.215332,-0.219482,-0.444995,-0.578914,0.456746,-0.508154
27972,,9.815187,0.579785,-0.827510,-0.007781,0.004068,-0.003748,0.977295,-0.217529,-0.223633,-0.445012,-0.578872,0.456803,-0.508137
27973,,9.808760,0.560676,-0.776662,-0.014446,0.001332,-0.005846,0.977051,-0.210938,-0.226074,-0.445032,-0.578841,0.456846,-0.508116
27974,,9.863186,0.530061,-0.805204,-0.004513,0.003512,-0.004663,0.970459,-0.210938,-0.217529,-0.445040,-0.578809,0.456894,-0.508102
27975,,9.863190,0.530619,-0.804798,0.001761,0.004583,-0.006414,0.974854,-0.210938,-0.217529,-0.445060,-0.578774,0.456928,-0.508094
27976,,9.898507,0.509142,-0.796436,-0.000530,0.008331,-0.003786,0.968262,-0.213135,-0.217529,-0.445065,-0.578737,0.456958,-0.508105
27977,,9.837281,0.508373,-0.827472,0.005157,0.007874,-0.003399,0.972900,-0.215332,-0.217529,-0.445064,-0.578703,0.456974,-0.508130
27978,,9.876023,0.502871,-0.788761,0.007512,0.006049,-0.004062,0.963867,-0.213135,-0.219727,-0.445042,-0.578690,0.456987,-0.508152
27979,,9.838985,0.483107,-0.753504,0.000321,0.007676,-0.006003,0.970459,-0.213135,-0.217529,-0.445050,-0.578661,0.456999,-0.508167
27980,,9.856910,0.513176,-0.750893,0.002676,0.005851,-0.006665,0.968506,-0.213135,-0.223877,-0.445048,-0.578644,0.457018,-0.508172
27981,,9.885403,0.459455,-0.803402,0.004443,0.002499,-0.005189,0.968262,-0.213135,-0.217529,-0.445040,-0.578627,0.457043,-0.508175
27982,,9.845439,0.504564,-0.802647,0.009213,0.004741,-0.008493,0.968506,-0.213135,-0.223877,-0.445021,-0.578631,0.457042,-0.508188
27983,,9.853498,0.499024,-0.780042,0.015487,0.005812,-0.010241,0.972900,-0.213135,-0.221680,-0.445003,-0.578641,0.457019,-0.508213
27984,,9.850599,0.564456,-0.813732,0.008362,0.005395,-0.006275,0.970459,-0.210938,-0.221924,-0.444982,-0.578636,0.457026,-0.508231
27985,,9.888791,0.478509,-0.771455,0.004968,0.002101,-0.009289,0.972656,-0.210938,-0.217529,-0.444991,-0.578624,0.457047,-0.508218
27986,,9.845435,0.507442,-0.800873,0.009338,0.008588,-0.004562,0.968506,-0.219727,-0.221680,-0.444970,-0.578610,0.457049,-0.508251
27987,,9.853517,0.501801,-0.778014,0.013983,0.006980,-0.011791,0.972900,-0.213135,-0.221680,-0.444948,-0.578631,0.457004,-0.508287
27988,,9.842074,0.492845,-0.829937,0.015814,0.005554,-0.008350,0.966064,-0.213135,-0.221924,-0.444911,-0.578647,0.456985,-0.508317
27989,,9.818203,0.525540,-0.784718,0.009474,0.006521,-0.012510,0.970703,-0.215332,-0.221680,-0.444920,-0.578645,0.456971,-0.508324
27990,,9.818184,0.526624,-0.784223,0.002287,0.004180,-0.010511,0.963867,-0.213135,-0.221924,-0.444924,-0.578640,0.456984,-0.508315
27991,,9.848801,0.528175,-0.767721,0.005353,0.007731,-0.009381,0.972900,-0.217529,-0.219482,-0.444934,-0.578623,0.456982,-0.508327
27992,,9.830919,0.499463,-0.769236,0.013074,0.001746,-0.007590,0.970703,-0.215332,-0.221680,-0.444895,-0.578642,0.456980,-0.508342
27993,,9.890524,0.527570,-0.809783,0.001961,0.004435,-0.012395,0.970459,-0.210938,-0.217529,-0.444896,-0.578649,0.456964,-0.508347
27994,,9.880667,0.492763,-0.789492,0.001317,-0.002979,-0.008277,0.968506,-0.215332,-0.221680,-0.444882,-0.578655,0.457001,-0.508320
27995,,9.850022,0.493010,-0.805201,0.007444,0.008088,-0.009961,0.974854,-0.210938,-0.221924,-0.444892,-0.578640,0.456994,-0.508334
27996,,9.864520,0.507277,-0.833046,0.003465,0.003266,-0.010838,0.970459,-0.208740,-0.219727,-0.444892,-0.578641,0.457004,-0.508324
27997,,9.841939,0.501234,-0.826502,0.000522,0.003564,-0.008042,0.968506,-0.217529,-0.219482,-0.444928,-0.578600,0.457052,-0.508296
27998,,9.845290,0.518322,-0.795667,0.000843,0.007270,-0.010100,0.970459,-0.213135,-0.213135,-0.444943,-0.578582,0.457062,-0.508293
27999,,9.869206,0.487480,-0.839777,0.004704,0.004279,-0.009203,0.972900,-0.213135,-0.217529,-0.444932,-0.578586,0.457052,-0.508309
28000,,9.864482,0.510969,-0.831233,0.014248,0.004799,-0.011856,0.970703,-0.215332,-0.223877,-0.444906,-0.578609,0.457029,-0.508325
28001,,9.891752,0.496406,-0.845004,0.019404,0.008709,-0.011305,0.970703,-0.219727,-0.215088,-0.444880,-0.578629,0.456978,-0.508372
28002,,9.848395,0.525572,-0.874103,0.021229,0.011248,-0.011805,0.966064,-0.213135,-0.219727,-0.444849,-0.578650,0.456923,-0.508424
28003,,9.864886,0.594836,-0.832682,0.014364,0.012609,-0.011869,0.970703,-0.213135,-0.219727,-0.444830,-0.578664,0.456857,-0.508483
28004,,9.874370,0.550846,-0.847746,0.006585,0.012701,-0.011683,0.972900,-0.213135,-0.221680,-0.444845,-0.578650,0.456836,-0.508505
28005,,9.837360,0.531569,-0.811813,0.003374,0.015180,-0.008811,0.968262,-0.213135,-0.217529,-0.444881,-0.578605,0.456828,-0.508533
28006,,9.842171,0.509802,-0.818461,0.005791,0.015283,-0.007505,0.968262,-0.213135,-0.217529,-0.444893,-0.578572,0.456815,-0.508570
28007,,9.860076,0.540168,-0.815052,0.003049,0.015434,-0.010693,0.968262,-0.213135,-0.219727,-0.444934,-0.578531,0.456801,-0.508594
28008,,9.850370,0.505428,-0.793149,-0.002904,0.018064,-0.011012,0.973145,-0.219727,-0.219482,-0.444987,-0.578480,0.456794,-0.508612
28009,,9.863250,0.477534,-0.777214,0.009440,0.020360,-0.008502,0.975098,-0.215332,-0.223877,-0.444994,-0.578454,0.456736,-0.508688
28010,,9.877871,0.491603,-0.803930,0.012332,0.014176,-0.009312,0.970459,-0.213135,-0.215332,-0.444989,-0.578443,0.456704,-0.508733
28011,,9.815294,0.529827,-0.796117,0.013245,0.015445,-0.009560,0.972656,-0.213135,-0.215332,-0.444992,-0.578428,0.456659,-0.508789
28012,,9.833186,0.560195,-0.792614,0.005199,0.017715,-0.009303,0.968506,-0.217529,-0.221680,-0.445016,-0.578392,0.456637,-0.508828
28013,,9.863856,0.561799,-0.774918,-0.001400,0.016893,-0.009453,0.968262,-0.210938,-0.215576,-0.445056,-0.578346,0.456620,-0.508860
28014,,9.870200,0.501391,-0.819664,-0.005851,0.018356,-0.008218,0.970703,-0.213135,-0.219727,-0.445111,-0.578282,0.456628,-0.508879
28015,,9.888101,0.531794,-0.815984,-0.003492,0.016534,-0.008872,0.972900,-0.213135,-0.217529,-0.445177,-0.578211,0.456643,-0.508887
28016,,9.851100,0.512296,-0.779570,-0.006974,0.021192,-0.005925,0.970703,-0.215332,-0.213135,-0.445236,-0.578132,0.456654,-0.508916
28017,,9.838426,0.541773,-0.791900,-0.004992,0.013740,-0.006487,0.972900,-0.215332,-0.219482,-0.445276,-0.578076,0.456664,-0.508935
28018,,9.859310,0.507518,-0.753790,-0.006709,0.022969,-0.009938,0.968262,-0.208740,-0.217773,-0.445348,-0.578002,0.456659,-0.508961
28019,,9.873987,0.521612,-0.780115,0.000160,0.017652,-0.005923,0.970703,-0.215332,-0.221680,-0.445400,-0.577929,0.456672,-0.508987
28020,,9.861103,0.470060,-0.788232,0.011910,0.022388,-0.005205,0.966064,-0.213135,-0.221924,-0.445405,-0.577887,0.456635,-0.509064
28021,,9.871036,0.506430,-0.806389,0.016039,0.021179,-0.008316,0.972900,-0.215332,-0.215332,-0.445416,-0.577854,0.456584,-0.509137
28022,,9.853616,0.558400,-0.810313,0.009495,0.022281,-0.006508,0.972656,-0.210938,-0.215332,-0.445431,-0.577809,0.456549,-0.509205
28023,,9.874508,0.524024,-0.771860,0.004665,0.022070,-0.009123,0.970703,-0.215332,-0.213135,-0.445478,-0.577752,0.456518,-0.509257
28024,,9.829494,0.510645,-0.757554,0.000214,0.019574,-0.003956,0.970703,-0.217529,-0.217285,-0.445507,-0.577688,0.456521,-0.509302
28025,,9.815018,0.497897,-0.727309,0.005256,0.019635,-0.007314,0.966309,-0.217529,-0.217529,-0.445522,-0.577652,0.456478,-0.509369
28026,,9.857101,0.496104,-0.768002,0.001716,0.018409,-0.002397,0.965820,-0.206787,-0.219971,-0.445540,-0.577591,0.456484,-0.509417
28027,,9.865178,0.490275,-0.744105,0.004613,0.016185,-0.007143,0.968506,-0.219727,-0.210938,-0.445584,-0.577529,0.456493,-0.509440
28028,,9.834716,0.490133,-0.758792,0.006383,0.012841,-0.005665,0.966064,-0.213135,-0.221924,-0.445584,-0.577500,0.456490,-0.509475
28029,,9.878286,0.543486,-0.731386,0.010568,0.013559,-0.006811,0.977051,-0.208740,-0.217529,-0.445573,-0.577485,0.456456,-0.509532
28030,,9.833217,0.529957,-0.717738,0.009441,0.016395,-0.004520,0.968506,-0.217529,-0.223877,-0.445570,-0.577451,0.456441,-0.509588
28031,,9.852726,0.521153,-0.752684,0.007295,0.014109,-0.005908,0.972900,-0.215332,-0.217529,-0.445593,-0.577404,0.456443,-0.509619
28032,,9.860747,0.515398,-0.729236,0.005472,0.011571,-0.005414,0.968262,-0.210938,-0.219727,-0.445593,-0.577375,0.456445,-0.509650
28033,,9.899680,0.497258,-0.800952,0.013572,0.011232,-0.003691,0.968506,-0.215332,-0.215332,-0.445585,-0.577344,0.456444,-0.509693
28034,,9.854597,0.483568,-0.787700,0.011158,0.011125,-0.005000,0.970459,-0.213135,-0.215332,-0.445566,-0.577328,0.456434,-0.509736
28035,,9.857791,0.500353,-0.756297,0.011749,0.012646,-0.007129,0.975342,-0.219727,-0.215088,-0.445566,-0.577306,0.456414,-0.509779
28036,,9.843221,0.487621,-0.726838,0.003379,0.011210,-0.004840,0.968506,-0.217529,-0.217285,-0.445569,-0.577272,0.456425,-0.509806
28037,,9.857912,0.501441,-0.753997,0.003970,0.012731,-0.006969,0.972900,-0.215332,-0.215332,-0.445562,-0.577257,0.456393,-0.509857
28038,,9.857972,0.502035,-0.752811,0.007564,0.011928,-0.005982,0.970459,-0.210938,-0.215332,-0.445557,-0.577234,0.456388,-0.509892
28039,,9.853200,0.525340,-0.743503,0.012020,0.014419,-0.011136,0.970703,-0.219727,-0.219482,-0.445579,-0.577210,0.456360,-0.509926
28040,,9.872729,0.516743,-0.778643,0.007884,0.011675,-0.004096,0.970703,-0.219727,-0.215088,-0.445568,-0.577183,0.456360,-0.509965
28041,,9.888654,0.504822,-0.733082,0.010517,0.011628,-0.008758,0.968262,-0.210938,-0.215576,-0.445540,-0.577193,0.456305,-0.510027
28042,,9.867865,0.459652,-0.764205,0.019528,0.012560,-0.007273,0.970703,-0.215332,-0.217529,-0.445506,-0.577197,0.456264,-0.510089
28043,,9.850326,0.511682,-0.769031,0.015345,0.015793,-0.010063,0.970703,-0.215332,-0.215332,-0.445523,-0.577171,0.456234,-0.510132
28044,,9.872983,0.519453,-0.773601,0.002519,0.015816,-0.006561,0.972656,-0.213135,-0.215332,-0.445543,-0.577127,0.456231,-0.510166
28045,,9.860179,0.468102,-0.782020,-0.005580,0.016151,-0.008291,0.975098,-0.213135,-0.217529,-0.445607,-0.577057,0.456247,-0.510175
28046,,9.813312,0.493792,-0.730184,-0.001766,0.011242,-0.009343,0.972656,-0.213135,-0.213135,-0.445637,-0.577022,0.456257,-0.510179
28047,,9.866436,0.502592,-0.718784,0.003061,0.015408,-0.010648,0.970703,-0.217529,-0.213135,-0.445687,-0.576973,0.456252,-0.510195
28048,,9.843913,0.496283,-0.711431,0.001285,0.010846,-0.004262,0.966064,-0.210938,-0.215576,-0.445694,-0.576935,0.456270,-0.510217
28049,,9.840887,0.480538,-0.740874,0.006873,0.006550,-0.007767,0.972900,-0.215332,-0.208740,-0.445699,-0.576915,0.456280,-0.510226
28050,,9.843942,0.497823,-0.709958,0.003822,0.006944,-0.012846,0.968262,-0.210938,-0.213379,-0.445712,-0.576911,0.456275,-0.510223
28051,,9.893965,0.490287,-0.729411,0.012289,0.008287,-0.007266,0.975098,-0.217529,-0.210938,-0.445707,-0.576895,0.456270,-0.510250
28052,,9.840918,0.483161,-0.738756,0.011969,0.008537,-0.009147,0.970459,-0.213135,-0.217529,-0.445690,-0.576898,0.456252,-0.510278
28053,,9.840937,0.483973,-0.737973,0.011969,0.008537,-0.009146,0.975098,-0.215332,-0.217285,-0.445680,-0.576895,0.456228,-0.510310
28054,,9.858660,0.514350,-0.735287,0.011058,0.007267,-0.008901,0.972656,-0.213135,-0.215332,-0.445663,-0.576898,0.456216,-0.510334
28055,,9.883073,0.483522,-0.778992,0.001730,0.006580,-0.012275,0.975098,-0.217529,-0.217285,-0.445696,-0.576876,0.456225,-0.510321
28056,,9.842791,0.447851,-0.774329,0.005961,0.005279,-0.007518,0.975098,-0.217529,-0.213135,-0.445685,-0.576870,0.456234,-0.510330
28057,,9.868387,0.472450,-0.749511,0.000773,0.007331,-0.017922,0.970703,-0.219727,-0.212891,-0.445713,-0.576878,0.456201,-0.510326
28058,,9.865345,0.457620,-0.779088,0.003822,0.006939,-0.012841,0.966064,-0.208740,-0.213379,-0.445725,-0.576874,0.456196,-0.510323
28059,,9.845778,0.468089,-0.742192,0.008598,0.005230,-0.012172,0.970703,-0.215332,-0.215332,-0.445734,-0.576872,0.456191,-0.510323
28060,,9.868328,0.476381,-0.747806,0.009461,0.004571,-0.014377,0.966064,-0.210938,-0.213379,-0.445728,-0.576890,0.456173,-0.510323
28061,,9.840825,0.493251,-0.733307,0.013647,0.005291,-0.015511,0.972900,-0.219727,-0.212891,-0.445739,-0.576899,0.456155,-0.510320
28062,,9.863365,0.501661,-0.738908,0.016058,0.005401,-0.014194,0.972656,-0.213135,-0.215332,-0.445717,-0.576930,0.456119,-0.510337
28063,,9.858429,0.525430,-0.730535,0.010962,0.003410,-0.012814,0.970703,-0.217529,-0.208740,-0.445699,-0.576953,0.456091,-0.510351
28064,,9.871191,0.498047,-0.715943,0.007050,0.004457,-0.015687,0.968262,-0.213135,-0.219727,-0.445704,-0.576970,0.456076,-0.510342
28065,,9.827869,0.527122,-0.746010,0.000227,0.003786,-0.009899,0.968506,-0.215332,-0.213135,-0.445720,-0.576954,0.456094,-0.510330
28066,,9.848539,0.493427,-0.709294,0.004319,0.000649,-0.014953,0.968262,-0.213135,-0.211182,-0.445722,-0.576972,0.456096,-0.510305
28067,,9.875953,0.479321,-0.723367,0.005820,-0.000510,-0.013393,0.970703,-0.215332,-0.213135,-0.445726,-0.576983,0.456105,-0.510282
28068,,9.832584,0.508512,-0.753893,0.005502,-0.000261,-0.015274,0.968506,-0.215332,-0.213135,-0.445724,-0.577007,0.456105,-0.510256
28069,,9.870886,0.504679,-0.715498,0.003409,-0.000622,-0.014706,0.972900,-0.215332,-0.213135,-0.445730,-0.577022,0.456108,-0.510230
28070,,9.882490,0.502950,-0.774073,0.008823,0.001120,-0.014201,0.968506,-0.215332,-0.219727,-0.445718,-0.577048,0.456100,-0.510219
28071,,9.864779,0.474710,-0.776030,0.013281,-0.000336,-0.015411,0.966064,-0.210938,-0.208984,-0.445702,-0.577084,0.456078,-0.510212
28072,,9.851894,0.504769,-0.790047,0.007094,0.006384,-0.013720,0.968262,-0.213135,-0.219727,-0.445706,-0.577091,0.456064,-0.510213
28073,,9.884131,0.549083,-0.816107,0.001908,0.000532,-0.016261,0.972900,-0.219727,-0.217285,-0.445748,-0.577082,0.456091,-0.510162
28074,,9.829234,0.500486,-0.783396,-0.011149,0.004649,-0.010748,0.972656,-0.213135,-0.215332,-0.445793,-0.577047,0.456136,-0.510123
28075,,9.851772,0.509014,-0.788836,-0.011196,0.006663,-0.016634,0.972900,-0.215332,-0.215332,-0.445857,-0.577021,0.456147,-0.510087
28076,,9.842035,0.474852,-0.767823,-0.010877,0.006414,-0.014751,0.966309,-0.217529,-0.213135,-0.445915,-0.576991,0.456176,-0.510044
28077,,9.895045,0.484426,-0.756976,-0.010877,0.006414,-0.014750,0.972656,-0.213135,-0.215332,-0.445970,-0.576964,0.456190,-0.510014
28078,,9.849901,0.471897,-0.744099,-0.006102,0.008656,-0.018005,0.970703,-0.217529,-0.217285,-0.446028,-0.576946,0.456192,-0.509981
28079,,9.854618,0.531902,-0.755626,-0.001005,0.006706,-0.015453,0.970947,-0.223877,-0.210693,-0.446066,-0.576935,0.456187,-0.509965
28080,,9.836984,0.503823,-0.756954,0.002271,0.006161,-0.016340,0.968262,-0.210938,-0.224121,-0.446090,-0.576938,0.456178,-0.509949
28081,,9.874169,0.525834,-0.790570,-0.005783,0.008406,-0.016121,0.968506,-0.217529,-0.213135,-0.446134,-0.576925,0.456167,-0.509936
28082,,9.823197,0.480128,-0.837997,-0.005059,0.011767,-0.008440,0.975098,-0.213135,-0.217529,-0.446171,-0.576879,0.456187,-0.509936
28083,,9.845801,0.488639,-0.842700,-0.001557,0.015005,-0.019214,0.972656,-0.210938,-0.213379,-0.446236,-0.576857,0.456151,-0.509937
28084,,9.924063,0.602765,-0.811059,-0.004197,0.015052,-0.014564,0.977295,-0.215332,-0.213135,-0.446294,-0.576819,0.456144,-0.509935
28085,,9.976838,0.693219,-0.803407,-0.023308,0.017902,-0.013319,0.966309,-0.215332,-0.215332,-0.446423,-0.576719,0.456183,-0.509901
28086,,9.875734,0.724346,-0.650228,-0.071166,0.015246,-0.008237,0.968262,-0.213135,-0.215332,-0.446659,-0.576516,0.456364,-0.509761
28087,,9.796116,0.490515,-0.631780,-0.097232,0.015559,-0.010985,0.972900,-0.215332,-0.213135,-0.446988,-0.576253,0.456605,-0.509555
28088,,9.781311,0.261828,-0.662147,-0.068798,0.013416,-0.008835,0.968506,-0.219727,-0.217285,-0.447214,-0.576062,0.456783,-0.509414
28089,,9.851144,0.245819,-0.717236,-0.003326,0.010461,-0.012821,0.975098,-0.215332,-0.210938,-0.447238,-0.576049,0.456759,-0.509428
28090,,9.845188,0.512141,-0.720616,0.039124,0.007442,-0.014504,0.970703,-0.215332,-0.215332,-0.447154,-0.576127,0.456659,-0.509503
28091,,9.891387,0.731560,-0.782628,0.014284,0.008776,-0.015631,0.977295,-0.215332,-0.213135,-0.447141,-0.576155,0.456597,-0.509538
28092,,9.889588,0.690814,-0.739128,-0.027533,0.011290,-0.010196,0.977051,-0.210938,-0.215332,-0.447247,-0.576065,0.456671,-0.509482
28093,,9.845197,0.515916,-0.717792,-0.051186,0.007766,-0.007730,0.972656,-0.210938,-0.219727,-0.447415,-0.575919,0.456814,-0.509370
28094,,9.838067,0.361522,-0.730845,-0.041590,0.010247,-0.008345,0.968262,-0.213135,-0.211182,-0.447554,-0.575795,0.456931,-0.509283
28095,,9.835234,0.346430,-0.760204,-0.007235,0.007553,-0.011765,0.970459,-0.213135,-0.217529,-0.447616,-0.575747,0.456966,-0.509251
28096,,9.865306,0.429325,-0.747228,0.018513,0.007498,-0.010879,0.972656,-0.206543,-0.215576,-0.447583,-0.575771,0.456929,-0.509287
28097,,9.882476,0.541121,-0.748066,0.021825,0.016784,-0.017630,0.975098,-0.213135,-0.217529,-0.447613,-0.575765,0.456869,-0.509321
28098,,9.864560,0.593618,-0.753078,0.012827,0.007920,-0.011298,0.970703,-0.215332,-0.215332,-0.447597,-0.575775,0.456844,-0.509345
28099,,9.905053,0.550814,-0.751932,-0.008106,0.012151,-0.013476,0.970947,-0.221680,-0.210693,-0.447661,-0.575731,0.456850,-0.509334
28100,,9.875078,0.470206,-0.762879,-0.004472,0.013288,-0.010524,0.970459,-0.213135,-0.215332,-0.447706,-0.575688,0.456859,-0.509336
28101,,9.834628,0.515275,-0.761733,0.005400,0.013600,-0.011226,0.972900,-0.215332,-0.213135,-0.447703,-0.575687,0.456806,-0.509386
28102,,9.807075,0.531570,-0.746452,0.008994,0.012812,-0.010235,0.970459,-0.208740,-0.217773,-0.447708,-0.575674,0.456783,-0.509418
28103,,9.829664,0.539809,-0.751227,-0.000009,0.011844,-0.011734,0.972656,-0.213135,-0.213135,-0.447758,-0.575632,0.456789,-0.509415
28104,,9.790212,0.559059,-0.677441,-0.006565,0.012918,-0.009957,0.968262,-0.213135,-0.217529,-0.447806,-0.575584,0.456806,-0.509412
28105,,9.845432,0.529406,-0.704626,0.002643,0.003910,-0.008554,0.977295,-0.213135,-0.215332,-0.447815,-0.575567,0.456826,-0.509406
28106,,9.792457,0.522100,-0.714396,-0.000322,0.008145,-0.009699,0.970703,-0.215332,-0.215332,-0.447834,-0.575544,0.456838,-0.509404
28107,,9.853270,0.525187,-0.681147,0.004103,0.004776,-0.012871,0.968262,-0.210938,-0.208984,-0.447843,-0.575547,0.456828,-0.509403
28108,,10.023019,0.573927,-0.780846,0.005327,0.005798,-0.011232,0.968506,-0.215332,-0.210938,-0.447844,-0.575546,0.456827,-0.509403
28109,,10.006065,0.600200,-0.713416,-0.011343,0.010659,-0.006712,0.968262,-0.213135,-0.211182,-0.447898,-0.575481,0.456866,-0.509394
28110,,9.883197,0.609930,-0.666412,-0.033497,0.009906,-0.006626,0.972900,-0.213135,-0.217529,-0.448009,-0.575372,0.456968,-0.509328
28111,,9.778308,0.432632,-0.677956,-0.053242,0.009269,-0.005219,0.970459,-0.213135,-0.213135,-0.448181,-0.575210,0.457126,-0.509218
28112,,9.750722,0.312788,-0.727856,-0.026937,0.004883,-0.004482,0.968262,-0.210938,-0.217529,-0.448256,-0.575124,0.457228,-0.509158
28113,,9.793064,0.311941,-0.769479,0.016977,0.006744,-0.014370,0.979492,-0.213135,-0.210938,-0.448252,-0.575139,0.457196,-0.509173
28114,,9.854134,0.463875,-0.855392,0.052913,0.006783,-0.012285,0.972656,-0.210938,-0.215332,-0.448122,-0.575244,0.457069,-0.509283
28115,,9.889027,0.660096,-0.785730,0.049352,0.013439,-0.015209,0.970703,-0.215332,-0.215332,-0.448036,-0.575323,0.456928,-0.509396
28116,,9.881639,0.722321,-0.738309,0.013772,0.011125,-0.009551,0.975098,-0.215332,-0.215332,-0.448021,-0.575323,0.456898,-0.509435
28117,,9.890064,0.636129,-0.710732,-0.013126,0.013982,-0.008181,0.974854,-0.210938,-0.211182,-0.448082,-0.575259,0.456918,-0.509437
28118,,9.856165,0.551568,-0.640856,-0.015494,0.011842,-0.003625,0.970703,-0.217529,-0.215332,-0.448137,-0.575178,0.456979,-0.509425
28119,,9.856764,0.471165,-0.635785,-0.005063,0.007811,-0.004489,0.977051,-0.210938,-0.213135,-0.448156,-0.575135,0.457008,-0.509431
28120,,9.836590,0.425529,-0.667430,0.001846,0.008417,-0.002420,0.970703,-0.215332,-0.210938,-0.448151,-0.575099,0.457035,-0.509451
28121,,9.885870,0.443952,-0.759151,0.021238,0.011328,-0.011552,0.970703,-0.215332,-0.208740,-0.448127,-0.575116,0.456976,-0.509507
28122,,9.892242,0.545152,-0.812484,0.023716,0.015300,-0.006309,0.968262,-0.210938,-0.211182,-0.448085,-0.575121,0.456921,-0.509588
28123,,9.844281,0.650711,-0.765000,-0.002308,0.013552,-0.003242,0.968506,-0.219727,-0.215088,-0.448113,-0.575059,0.456942,-0.509614
28124,,9.842570,0.608976,-0.721158,-0.029833,0.012956,-0.001730,0.968262,-0.213135,-0.213135,-0.448207,-0.574940,0.457042,-0.509576
28125,,9.840516,0.512048,-0.745998,-0.027111,0.012825,0.001466,0.970459,-0.213135,-0.213135,-0.448276,-0.574828,0.457125,-0.509566
28126,,9.854107,0.402740,-0.726440,-0.007715,0.011792,-0.003753,0.968506,-0.215332,-0.215332,-0.448310,-0.574766,0.457165,-0.509571
28127,,9.847253,0.383338,-0.675036,0.023092,0.007909,-0.002243,0.972656,-0.213135,-0.213135,-0.448248,-0.574774,0.457138,-0.509641
28128,,9.866567,0.455404,-0.714409,0.051523,0.013723,-0.007886,0.974854,-0.210938,-0.213135,-0.448126,-0.574849,0.457011,-0.509778
28129,,9.811279,0.486275,-0.685673,0.057769,0.008952,-0.007611,0.972900,-0.217529,-0.215088,-0.447995,-0.574933,0.456889,-0.509907
28130,,9.846187,0.546254,-0.680816,0.037395,0.008803,-0.009987,0.968506,-0.219727,-0.215088,-0.447908,-0.574993,0.456803,-0.509992
28131,,9.848624,0.507976,-0.718371,0.027870,0.010160,-0.005461,0.970459,-0.213135,-0.215332,-0.447819,-0.575037,0.456720,-0.510095
28132,,9.883551,0.567764,-0.713311,0.017997,0.009838,-0.004778,0.975098,-0.215332,-0.215332,-0.447777,-0.575040,0.456697,-0.510151
28133,,9.911251,0.552975,-0.726514,0.000591,0.005461,-0.006021,0.974854,-0.208740,-0.208984,-0.447789,-0.575009,0.456725,-0.510149
28134,,9.924197,0.525005,-0.711498,-0.011063,0.008466,-0.006813,0.970459,-0.213135,-0.211182,-0.447832,-0.574954,0.456773,-0.510130
28135,,9.844249,0.451751,-0.702893,-0.008936,0.010762,-0.005409,0.975098,-0.217529,-0.215088,-0.447900,-0.574871,0.456833,-0.510109
28136,,9.841611,0.436056,-0.732182,0.005403,0.009645,-0.007289,0.970459,-0.213135,-0.211182,-0.447900,-0.574852,0.456835,-0.510130
28137,,9.799199,0.438479,-0.689409,0.014058,0.005000,-0.005701,0.968506,-0.215332,-0.208984,-0.447863,-0.574859,0.456820,-0.510168
28138,,9.846135,0.495679,-0.743226,0.017617,0.006230,-0.010570,0.959717,-0.217529,-0.213135,-0.447828,-0.574883,0.456789,-0.510199
28139,,9.848805,0.512802,-0.712444,0.013744,0.005247,-0.007575,0.979492,-0.215332,-0.210938,-0.447791,-0.574898,0.456767,-0.510235
28140,,9.873833,0.481766,-0.756129,0.014964,0.006271,-0.005934,0.974854,-0.213135,-0.213135,-0.447752,-0.574905,0.456755,-0.510272
28141,,9.896609,0.544756,-0.692804,0.012276,0.008325,-0.007168,0.968262,-0.213135,-0.211182,-0.447737,-0.574899,0.456738,-0.510307
28142,,9.874067,0.538106,-0.686225,0.009277,0.006684,-0.006373,0.973145,-0.221680,-0.208496,-0.447716,-0.574893,0.456739,-0.510330
28143,,9.861806,0.486368,-0.695672,0.001811,0.006483,-0.004380,0.968262,-0.213135,-0.211182,-0.447698,-0.574880,0.456741,-0.510360
28144,,9.836613,0.463372,-0.719357,0.011963,0.008570,-0.009042,0.972900,-0.213135,-0.217529,-0.447681,-0.574881,0.456723,-0.510389
28145,,9.891364,0.514219,-0.750762,0.018871,0.005243,-0.003053,0.970459,-0.213135,-0.211182,-0.447645,-0.574875,0.456727,-0.510425
28146,,9.848898,0.516650,-0.708367,0.009213,0.002825,-0.010291,0.975098,-0.213135,-0.215332,-0.447626,-0.574888,0.456726,-0.510428
28147,,9.869628,0.482771,-0.671211,-0.000003,0.007877,-0.007813,0.972900,-0.215332,-0.210938,-0.447661,-0.574844,0.456756,-0.510419
28148,,9.832322,0.462788,-0.636495,0.006278,0.005043,-0.005576,0.968262,-0.213135,-0.211182,-0.447643,-0.574834,0.456771,-0.510433
28149,,9.861844,0.490161,-0.692464,0.019119,0.005078,-0.008998,0.977295,-0.217529,-0.208740,-0.447610,-0.574851,0.456746,-0.510465
28150,,9.856677,0.513302,-0.684229,0.017620,0.002288,-0.006647,0.968506,-0.215332,-0.215332,-0.447556,-0.574876,0.456734,-0.510494
28151,,9.869612,0.485363,-0.669581,0.011339,0.005121,-0.008884,0.970703,-0.215332,-0.217529,-0.447531,-0.574888,0.456713,-0.510522
28152,,9.872123,0.447161,-0.707500,0.019713,0.002656,-0.007200,0.970459,-0.210938,-0.213379,-0.447473,-0.574918,0.456694,-0.510556
28153,,9.876546,0.506156,-0.719645,0.027180,0.002856,-0.009185,0.970703,-0.215332,-0.206787,-0.447427,-0.574946,0.456670,-0.510586
28154,,9.866188,0.551936,-0.703663,0.013995,0.001136,-0.009601,0.970703,-0.217529,-0.213135,-0.447389,-0.574973,0.456662,-0.510597
28155,,9.851295,0.483981,-0.743918,0.010122,0.000155,-0.006613,0.972900,-0.215332,-0.206787,-0.447350,-0.574989,0.456662,-0.510613
28156,,9.859057,0.478368,-0.721704,0.009529,-0.001361,-0.004499,0.968506,-0.215332,-0.213135,-0.447306,-0.575001,0.456686,-0.510617
28157,,9.868609,0.514673,-0.742212,0.008311,-0.002389,-0.006139,0.975098,-0.217529,-0.215088,-0.447273,-0.575011,0.456706,-0.510616
28158,,9.851185,0.485555,-0.744348,0.008621,0.001302,-0.008169,0.970703,-0.215332,-0.215332,-0.447247,-0.575022,0.456716,-0.510618
28159,,9.858938,0.480352,-0.722007,0.012777,0.000107,-0.011237,0.972900,-0.219727,-0.215088,-0.447218,-0.575050,0.456703,-0.510623
28160,,9.884062,0.504883,-0.697766,0.004717,-0.001610,-0.007139,0.968262,-0.213135,-0.215332,-0.447194,-0.575057,0.456732,-0.510610
28161,,9.882237,0.463690,-0.655246,0.009809,0.000398,-0.008486,0.966064,-0.213135,-0.215332,-0.447169,-0.575069,0.456737,-0.510614
28162,,9.844068,0.469325,-0.693854,0.018211,0.003802,-0.008748,0.972900,-0.219727,-0.210938,-0.447123,-0.575097,0.456715,-0.510644
28163,,9.858786,0.483491,-0.721995,0.018464,-0.000305,-0.010785,0.966309,-0.219727,-0.210938,-0.447075,-0.575137,0.456690,-0.510661
28164,,9.868304,0.520059,-0.742511,0.018185,-0.002064,-0.006794,0.972656,-0.210938,-0.217529,-0.447010,-0.575175,0.456687,-0.510679
28165,,9.878630,0.475547,-0.758496,0.014621,0.000646,-0.005840,0.966309,-0.215332,-0.210938,-0.446973,-0.575184,0.456695,-0.510693
28166,,9.850865,0.491412,-0.744734,0.010997,-0.000508,-0.008800,0.972900,-0.215332,-0.210938,-0.446938,-0.575206,0.456701,-0.510694
28167,,9.866421,0.480147,-0.700084,0.006215,0.001173,-0.009485,0.968506,-0.219727,-0.210938,-0.446932,-0.575207,0.456714,-0.510686
28168,,9.868963,0.441979,-0.738158,0.006528,0.000930,-0.007609,0.975098,-0.215332,-0.215332,-0.446910,-0.575213,0.456732,-0.510684
28169,,9.870681,0.484735,-0.780790,0.004997,0.000144,-0.011124,0.968262,-0.210938,-0.213379,-0.446896,-0.575229,0.456731,-0.510678
28170,,9.886245,0.473534,-0.736043,0.007433,0.002202,-0.007845,0.966309,-0.217529,-0.213135,-0.446874,-0.575234,0.456743,-0.510681
28171,,9.885394,0.555156,-0.740229,0.003555,0.005154,-0.008769,0.972900,-0.217529,-0.213135,-0.446896,-0.575207,0.456771,-0.510668
28172,,9.843737,0.477150,-0.693216,0.002337,0.004124,-0.010407,0.975098,-0.217529,-0.215088,-0.446900,-0.575201,0.456783,-0.510659
28173,,9.881861,0.417904,-0.722390,0.011022,0.005356,-0.010747,0.972656,-0.213135,-0.208984,-0.446880,-0.575217,0.456757,-0.510683
28174,,9.868853,0.447382,-0.736381,0.026582,0.005277,-0.010951,0.966064,-0.213135,-0.213379,-0.446818,-0.575264,0.456703,-0.510732
28175,,9.848886,0.457470,-0.699955,0.026866,0.003101,-0.011027,0.977295,-0.217529,-0.210938,-0.446778,-0.575295,0.456674,-0.510758
28176,,9.850590,0.500300,-0.742449,0.016680,0.003012,-0.012246,0.966309,-0.215332,-0.210938,-0.446743,-0.575329,0.456647,-0.510775
28177,,9.853127,0.517853,-0.712196,0.013967,-0.000804,-0.011534,0.966309,-0.219727,-0.210938,-0.446709,-0.575363,0.456631,-0.510781
28178,,9.883417,0.520078,-0.695751,0.005027,0.002071,-0.009162,0.968506,-0.217529,-0.213135,-0.446697,-0.575366,0.456645,-0.510775
28179,,9.855668,0.480702,-0.750184,0.009497,0.000633,-0.010347,0.975342,-0.219727,-0.217285,-0.446663,-0.575394,0.456629,-0.510787
28180,,9.893754,0.477050,-0.711416,0.012466,0.000340,-0.013090,0.972900,-0.217529,-0.217285,-0.446636,-0.575427,0.456617,-0.510785
28181,,9.872892,0.512639,-0.748074,0.008024,0.003711,-0.009950,0.975098,-0.219727,-0.210693,-0.446616,-0.575441,0.456602,-0.510800
28182,,9.852975,0.467356,-0.779900,0.009804,0.004320,-0.012378,0.968506,-0.215332,-0.210938,-0.446604,-0.575456,0.456589,-0.510804
28183,,9.855528,0.484983,-0.749274,0.006522,0.004854,-0.011509,0.966309,-0.219727,-0.210938,-0.446596,-0.575466,0.456571,-0.510817
28184,,9.810433,0.471518,-0.737033,0.011896,0.004689,-0.012928,0.970703,-0.217529,-0.210938,-0.446581,-0.575486,0.456551,-0.510825
28185,,9.863259,0.481233,-0.726375,0.013968,-0.000805,-0.011524,0.975098,-0.217529,-0.210938,-0.446532,-0.575532,0.456521,-0.510843
28186,,9.868449,0.459711,-0.734193,0.009212,0.002806,-0.010262,0.975098,-0.215332,-0.210938,-0.446513,-0.575545,0.456520,-0.510846
28187,,9.870985,0.477223,-0.703727,0.013398,0.003544,-0.011365,0.970459,-0.213135,-0.211182,-0.446488,-0.575568,0.456493,-0.510866
28188,,9.840614,0.476967,-0.719961,0.017869,0.002107,-0.012546,0.966309,-0.215332,-0.217529,-0.446448,-0.575607,0.456465,-0.510881
28189,,9.898675,0.464293,-0.717148,0.017556,0.002346,-0.014419,0.968506,-0.217529,-0.213135,-0.446440,-0.575629,0.456450,-0.510878
28190,,9.895067,0.529774,-0.751880,0.016680,0.003009,-0.012227,0.968506,-0.215332,-0.213135,-0.446405,-0.575662,0.456423,-0.510894
28191,,9.842159,0.522133,-0.762299,0.009498,0.000629,-0.010335,0.975098,-0.215332,-0.210938,-0.446388,-0.575676,0.456426,-0.510892
28192,,9.842127,0.523098,-0.762049,0.001146,0.005012,-0.010085,0.970703,-0.219727,-0.217285,-0.446397,-0.575665,0.456440,-0.510883
28193,,9.882940,0.480379,-0.760985,-0.001564,0.001196,-0.009374,0.972900,-0.219727,-0.206543,-0.446402,-0.575658,0.456462,-0.510867
28194,,9.882901,0.481469,-0.760807,0.004401,0.002543,-0.012902,0.968262,-0.213135,-0.215332,-0.446403,-0.575667,0.456466,-0.510853
28195,,9.875095,0.488523,-0.782544,0.009256,0.010600,-0.010259,0.972900,-0.219727,-0.215088,-0.446406,-0.575658,0.456442,-0.510883
28196,,9.862920,0.492650,-0.723317,0.010142,0.006012,-0.008538,0.970703,-0.219727,-0.212891,-0.446387,-0.575661,0.456436,-0.510901
28197,,9.857651,0.516129,-0.714854,0.010419,0.007761,-0.012523,0.972656,-0.213135,-0.215332,-0.446365,-0.575684,0.456387,-0.510937
28198,,9.824786,0.499260,-0.760902,0.011019,0.005347,-0.010725,0.966309,-0.217529,-0.217529,-0.446348,-0.575696,0.456374,-0.510951
28199,,9.875959,0.467130,-0.707194,0.003838,0.002966,-0.008836,0.968750,-0.223877,-0.210693,-0.446361,-0.575677,0.456403,-0.510935
28200,,9.875091,0.493125,-0.779696,0.001172,0.006945,-0.008131,0.972900,-0.215332,-0.210938,-0.446369,-0.575657,0.456419,-0.510936
28201,,9.845624,0.467521,-0.722648,-0.002162,0.003605,-0.011169,0.972900,-0.219727,-0.215088,-0.446368,-0.575661,0.456413,-0.510937
28202,,9.840326,0.491128,-0.714359,-0.004541,0.005409,-0.010541,0.972900,-0.219727,-0.215088,-0.446395,-0.575638,0.456440,-0.510916
28203,,9.845591,0.469574,-0.721769,-0.006034,0.002626,-0.008193,0.977295,-0.215332,-0.208740,-0.446399,-0.575627,0.456458,-0.510908
28204,,9.830819,0.457368,-0.693387,-0.001899,-0.000506,-0.013196,0.968506,-0.219727,-0.215088,-0.446412,-0.575630,0.456484,-0.510870
28205,,9.865513,0.462616,-0.757654,0.004716,0.002303,-0.011021,0.972900,-0.217529,-0.208740,-0.446403,-0.575640,0.456480,-0.510870
28206,,9.867985,0.480312,-0.727207,0.013086,0.003784,-0.013221,0.975098,-0.215332,-0.215332,-0.446383,-0.575666,0.456458,-0.510879
28207,,9.919937,0.515449,-0.789149,0.013700,0.007231,-0.013378,0.970703,-0.215332,-0.215332,-0.446373,-0.575683,0.456420,-0.510902
28208,,9.912139,0.522507,-0.810821,0.002950,0.007552,-0.010551,0.968506,-0.215332,-0.217529,-0.446384,-0.575670,0.456423,-0.510904
28209,,9.854864,0.512271,-0.739788,-0.000957,0.008558,-0.013435,0.970947,-0.223877,-0.212891,-0.446435,-0.575638,0.456438,-0.510883
28210,,9.832337,0.506169,-0.733096,-0.009327,0.007075,-0.011236,0.975098,-0.215332,-0.215332,-0.446481,-0.575601,0.456472,-0.510854
28211,,9.856057,0.433802,-0.733357,-0.007211,0.009382,-0.009833,0.972900,-0.217529,-0.208740,-0.446507,-0.575575,0.456472,-0.510861
28212,,9.861390,0.412462,-0.740176,0.008627,0.011077,-0.013991,0.970947,-0.221924,-0.217285,-0.446518,-0.575574,0.456443,-0.510878
28213,,9.850773,0.458746,-0.723677,0.013701,0.007233,-0.013370,0.970703,-0.217529,-0.215332,-0.446485,-0.575610,0.456382,-0.510921
28214,,9.832345,0.510879,-0.729724,0.010418,0.007763,-0.012506,0.972900,-0.219727,-0.212891,-0.446480,-0.575618,0.456360,-0.510936
28215,,9.867952,0.491106,-0.720411,0.004708,0.006222,-0.014918,0.975098,-0.219727,-0.208740,-0.446484,-0.575632,0.456330,-0.510943
28216,,9.885121,0.522271,-0.717944,-0.001258,0.004870,-0.011398,0.970703,-0.217529,-0.215332,-0.446503,-0.575619,0.456348,-0.510926
28217,,9.873245,0.470839,-0.727165,0.000267,0.005668,-0.007887,0.968506,-0.215332,-0.208984,-0.446497,-0.575611,0.456346,-0.510940
28218,,9.845395,0.486974,-0.712857,0.003829,0.006886,-0.012730,0.972900,-0.215332,-0.215332,-0.446509,-0.575607,0.456343,-0.510937
28219,,9.865440,0.478976,-0.748384,0.002025,0.004340,-0.012258,0.975098,-0.215332,-0.210938,-0.446533,-0.575594,0.456356,-0.510920
28220,,9.875642,0.490911,-0.695414,-0.000379,0.004205,-0.013582,0.972900,-0.215332,-0.210938,-0.446553,-0.575590,0.456366,-0.510898
28221,,9.867824,0.498162,-0.717320,-0.001570,0.005105,-0.013268,0.972900,-0.215332,-0.208740,-0.446589,-0.575572,0.456379,-0.510875
28222,,9.820316,0.468062,-0.735386,0.002315,0.002166,-0.012333,0.968262,-0.213135,-0.211182,-0.446593,-0.575576,0.456390,-0.510856
28223,,9.865297,0.483925,-0.747077,0.000824,-0.000617,-0.009989,0.972900,-0.215332,-0.213135,-0.446608,-0.575564,0.456429,-0.510823
28224,,9.878395,0.456601,-0.732280,0.002926,0.005612,-0.012490,0.972900,-0.215332,-0.217529,-0.446619,-0.575561,0.456431,-0.510815
28225,,9.820201,0.471442,-0.734764,0.013379,0.001616,-0.013275,0.970459,-0.210938,-0.213379,-0.446608,-0.575582,0.456419,-0.510812
28226,,9.887697,0.494739,-0.752213,0.013401,0.003553,-0.011324,0.966309,-0.217529,-0.219482,-0.446581,-0.575605,0.456402,-0.510824
28227,,9.887663,0.495731,-0.752002,0.010407,0.001907,-0.010540,0.975098,-0.217529,-0.213135,-0.446583,-0.575602,0.456420,-0.510810
28228,,9.900774,0.468277,-0.737244,0.009216,0.002807,-0.010227,0.968506,-0.215332,-0.213135,-0.446564,-0.575615,0.456418,-0.510813
28229,,9.865099,0.490323,-0.745524,0.009514,0.006490,-0.012257,0.972656,-0.213135,-0.213135,-0.446562,-0.575621,0.456398,-0.510827
28230,,9.842566,0.484217,-0.739101,0.005898,0.005316,-0.015218,0.975342,-0.221680,-0.208496,-0.446571,-0.575632,0.456385,-0.510818
28231,,9.865043,0.492941,-0.744530,0.011897,0.004689,-0.012879,0.972900,-0.215332,-0.213135,-0.446549,-0.575659,0.456348,-0.510841
28232,,9.879749,0.507566,-0.772168,0.006508,0.008762,-0.015375,0.966309,-0.217529,-0.217529,-0.446564,-0.575662,0.456325,-0.510844
28233,,9.866591,0.537172,-0.785940,-0.000339,0.008072,-0.009677,0.970703,-0.217529,-0.210938,-0.446590,-0.575633,0.456338,-0.510841
28234,,9.837146,0.511561,-0.728661,-0.006927,0.007188,-0.009908,0.966309,-0.219727,-0.213135,-0.446627,-0.575599,0.456369,-0.510821
28235,,9.840130,0.473646,-0.765811,-0.008741,0.008559,-0.013340,0.977295,-0.213135,-0.213135,-0.446668,-0.575575,0.456371,-0.510809
28236,,9.850298,0.485612,-0.712527,-0.002451,0.005761,-0.011077,0.964355,-0.224121,-0.212891,-0.446691,-0.575556,0.456391,-0.510793
28237,,9.878173,0.471768,-0.725631,0.000523,0.005469,-0.013806,0.972900,-0.215332,-0.215332,-0.446700,-0.575563,0.456373,-0.510793
28238,,9.920784,0.471330,-0.766865,0.006819,0.008528,-0.013496,0.968262,-0.213135,-0.219727,-0.446709,-0.575564,0.456356,-0.510800
28239,,9.880540,0.490997,-0.693914,0.007719,0.009801,-0.013729,0.972900,-0.217529,-0.213135,-0.446744,-0.575543,0.456352,-0.510797
28240,,9.862608,0.487455,-0.768023,-0.001861,0.007267,-0.013181,0.964111,-0.219727,-0.213135,-0.446774,-0.575527,0.456360,-0.510781
28241,,9.855657,0.469634,-0.716460,0.005023,0.011835,-0.014975,0.970459,-0.213135,-0.217529,-0.446788,-0.575529,0.456315,-0.510807
28242,,9.825385,0.469572,-0.731964,0.000820,0.009149,-0.015831,0.961914,-0.221924,-0.213135,-0.446821,-0.575520,0.456305,-0.510796
28243,,9.895246,0.509890,-0.718543,0.002634,0.007779,-0.012398,0.970703,-0.219727,-0.215088,-0.446837,-0.575512,0.456296,-0.510800
28244,,9.892885,0.494560,-0.747898,0.001131,0.008913,-0.013957,0.966064,-0.213135,-0.213379,-0.446864,-0.575500,0.456291,-0.510794
28245,,9.855644,0.475072,-0.713047,0.001735,0.006504,-0.012163,0.968262,-0.213135,-0.213135,-0.446884,-0.575488,0.456293,-0.510789
28246,,9.835477,0.485614,-0.676257,0.000820,0.009147,-0.015826,0.966064,-0.213135,-0.217529,-0.446918,-0.575479,0.456283,-0.510778
28247,,9.850187,0.500290,-0.703854,-0.000064,0.003956,-0.011693,0.972900,-0.219727,-0.208740,-0.446962,-0.575446,0.456324,-0.510739
28248,,9.833103,0.471627,-0.705082,0.004122,0.010560,-0.014732,0.973145,-0.219727,-0.219482,-0.446987,-0.575438,0.456306,-0.510743
28249,,9.853255,0.463752,-0.740449,0.011002,0.003422,-0.012622,0.972900,-0.215332,-0.213135,-0.446947,-0.575480,0.456258,-0.510774
28250,,9.879565,0.530785,-0.758792,0.010985,0.001483,-0.014569,0.970703,-0.215332,-0.213135,-0.446931,-0.575510,0.456243,-0.510767
28251,,9.862472,0.502127,-0.760285,0.004726,0.008151,-0.012937,0.974854,-0.213135,-0.213135,-0.446953,-0.575499,0.456234,-0.510769
28252,,9.847721,0.490046,-0.731481,0.005314,0.003804,-0.013090,0.975098,-0.217529,-0.217285,-0.446954,-0.575507,0.456232,-0.510760
28253,,9.868658,0.457075,-0.694185,0.014287,0.002898,-0.013472,0.972900,-0.219727,-0.210938,-0.446939,-0.575532,0.456209,-0.510766
28254,,9.858553,0.447485,-0.746323,0.021479,0.007236,-0.013389,0.964111,-0.217529,-0.210938,-0.446903,-0.575568,0.456158,-0.510803
28255,,9.856905,0.529433,-0.750784,0.019681,0.004687,-0.012920,0.970459,-0.213135,-0.208984,-0.446847,-0.575621,0.456092,-0.510851
28256,,9.871602,0.543862,-0.778677,0.007716,0.003942,-0.011760,0.970703,-0.215332,-0.215332,-0.446839,-0.575631,0.456087,-0.510850
28257,,9.839811,0.501810,-0.751840,0.001423,0.006730,-0.014026,0.972900,-0.213135,-0.217529,-0.446877,-0.575612,0.456096,-0.510831
28258,,9.845255,0.480482,-0.759088,0.000246,0.003715,-0.009818,0.972656,-0.213135,-0.215332,-0.446885,-0.575602,0.456116,-0.510817
28259,,9.860766,0.469901,-0.713779,0.003826,0.006871,-0.012698,0.968506,-0.217529,-0.213135,-0.446925,-0.575575,0.456135,-0.510796
28260,,9.852977,0.476985,-0.735721,0.006508,0.002901,-0.013393,0.977295,-0.217529,-0.215088,-0.446922,-0.575589,0.456131,-0.510786
28261,,9.847465,0.500676,-0.727712,0.008910,0.003044,-0.012065,0.972900,-0.217529,-0.210938,-0.446901,-0.575612,0.456108,-0.510799
28262,,9.869917,0.509251,-0.733328,0.004726,0.002292,-0.010978,0.968506,-0.215332,-0.208984,-0.446896,-0.575619,0.456117,-0.510788
28263,,9.860630,0.474530,-0.712598,-0.000962,0.002671,-0.011452,0.972900,-0.217529,-0.210938,-0.446906,-0.575615,0.456126,-0.510775
28264,,9.840376,0.485194,-0.676244,0.006476,0.004873,-0.019232,0.968506,-0.215332,-0.215332,-0.446922,-0.575638,0.456101,-0.510758
28265,,9.839517,0.511452,-0.749195,0.008030,-0.002143,-0.007932,0.964111,-0.219727,-0.215332,-0.446889,-0.575656,0.456113,-0.510756
28266,,9.877463,0.508288,-0.710463,0.005008,-0.001822,-0.012997,0.968506,-0.217529,-0.215332,-0.446878,-0.575678,0.456124,-0.510730
28267,,9.824664,0.500346,-0.721166,0.004416,0.002523,-0.012845,0.970459,-0.213135,-0.211182,-0.446866,-0.575698,0.456109,-0.510732
28268,,9.839333,0.514708,-0.749380,0.004434,-0.001389,-0.008948,0.972900,-0.217529,-0.213135,-0.446848,-0.575709,0.456133,-0.510715
28269,,9.843806,0.549001,-0.689340,0.004421,-0.003329,-0.010893,0.972900,-0.215332,-0.210938,-0.446836,-0.575723,0.456154,-0.510689
28270,,9.832252,0.497406,-0.699217,-0.000944,-0.001244,-0.007553,0.968506,-0.215332,-0.208984,-0.446830,-0.575718,0.456195,-0.510664
28271,,9.822964,0.462640,-0.678998,0.010683,-0.004140,-0.014464,0.966309,-0.219727,-0.215088,-0.446806,-0.575759,0.456189,-0.510644
28272,,9.865593,0.461955,-0.721130,0.011330,-0.000723,-0.006836,0.968506,-0.219727,-0.219482,-0.446764,-0.575778,0.456200,-0.510650
28273,,9.865528,0.462643,-0.721569,0.021783,-0.006632,-0.009540,0.968506,-0.219727,-0.213135,-0.446666,-0.575859,0.456163,-0.510678
28274,,9.861371,0.527597,-0.757308,0.018787,-0.002433,-0.010714,0.970703,-0.215332,-0.213135,-0.446608,-0.575908,0.456147,-0.510687
28275,,9.844326,0.498610,-0.759442,0.009502,-0.001305,-0.012206,0.975098,-0.215332,-0.215332,-0.446576,-0.575944,0.456133,-0.510687
28276,,9.842007,0.482914,-0.789623,0.006229,0.001158,-0.009411,0.970459,-0.213135,-0.208984,-0.446559,-0.575953,0.456145,-0.510681
28277,,9.836446,0.506344,-0.781934,0.002032,-0.001538,-0.010270,0.970703,-0.215332,-0.213135,-0.446566,-0.575949,0.456178,-0.510649
28278,,9.902409,0.488325,-0.756601,0.003826,0.001012,-0.010737,0.963867,-0.210938,-0.217529,-0.446560,-0.575956,0.456193,-0.510634
28279,,9.872117,0.487613,-0.773023,0.002632,0.001909,-0.010428,0.975098,-0.213135,-0.215332,-0.446587,-0.575933,0.456235,-0.510600
28280,,9.866557,0.511106,-0.765182,0.001735,0.000634,-0.010194,0.966309,-0.217529,-0.213135,-0.446584,-0.575934,0.456257,-0.510580
28281,,9.838497,0.527314,-0.751585,-0.002185,-0.000325,-0.015024,0.968750,-0.221924,-0.212891,-0.446612,-0.575934,0.456280,-0.510535
28282,,9.865047,0.472190,-0.721961,-0.009354,0.005060,-0.013173,0.966309,-0.219727,-0.210938,-0.446659,-0.575906,0.456313,-0.510496
28283,,9.850314,0.459918,-0.693548,-0.001840,-0.002524,-0.007315,0.968262,-0.210938,-0.211182,-0.446617,-0.575931,0.456316,-0.510501
28284,,9.831420,0.511648,-0.700627,0.002619,-0.000032,-0.012369,0.973145,-0.219727,-0.221680,-0.446616,-0.575942,0.456332,-0.510476
28285,,9.857114,0.481131,-0.744405,0.006216,-0.000783,-0.011350,0.968506,-0.217529,-0.217285,-0.446611,-0.575952,0.456347,-0.510456
28286,,9.829048,0.497188,-0.730904,0.010399,-0.000027,-0.012433,0.968262,-0.213135,-0.213135,-0.446588,-0.575980,0.456343,-0.510449
28287,,9.868372,0.535868,-0.735144,0.005618,-0.004231,-0.011190,0.972900,-0.215332,-0.217529,-0.446575,-0.575997,0.456368,-0.510419
28288,,9.859157,0.501122,-0.714772,0.005917,0.001389,-0.011274,0.970703,-0.219727,-0.212891,-0.446565,-0.576008,0.456375,-0.510408
28289,,9.849091,0.491058,-0.767286,0.005642,-0.000347,-0.007304,0.966309,-0.219727,-0.217285,-0.446533,-0.576023,0.456381,-0.510414
28290,,9.899522,0.484496,-0.786787,0.000838,-0.000643,-0.009956,0.970703,-0.215332,-0.213135,-0.446530,-0.576025,0.456410,-0.510389
28291,,9.873694,0.517125,-0.743149,0.000838,-0.000643,-0.009956,0.970703,-0.215332,-0.215332,-0.446519,-0.576034,0.456424,-0.510375
28292,,9.839815,0.458016,-0.746831,0.000539,0.001529,-0.009881,0.968506,-0.217529,-0.217285,-0.446521,-0.576030,0.456449,-0.510355
28293,,9.851130,0.511609,-0.737198,0.000527,-0.000413,-0.011823,0.964111,-0.217529,-0.215332,-0.446526,-0.576034,0.456468,-0.510329
28294,,9.869960,0.461927,-0.730344,-0.000058,-0.001919,-0.009721,0.972656,-0.213135,-0.215332,-0.446521,-0.576038,0.456502,-0.510299
28295,,9.847430,0.455227,-0.724855,-0.000344,-0.005597,-0.007693,0.970459,-0.208740,-0.213379,-0.446514,-0.576037,0.456555,-0.510259
28296,,9.828444,0.507031,-0.732262,0.001711,-0.003252,-0.014071,0.972900,-0.215332,-0.215332,-0.446512,-0.576058,0.456575,-0.510219
28297,,9.864155,0.487544,-0.723943,0.003828,-0.006782,-0.010717,0.966064,-0.210938,-0.208984,-0.446521,-0.576057,0.456634,-0.510160
28298,,9.858472,0.510934,-0.717274,0.000855,-0.014287,-0.007988,0.968750,-0.221924,-0.212891,-0.446481,-0.576090,0.456699,-0.510100
28299,,9.877271,0.461171,-0.711312,0.000230,-0.006034,-0.011734,0.972656,-0.213135,-0.215332,-0.446468,-0.576112,0.456725,-0.510063
28300,,9.852460,0.438062,-0.736476,0.003221,-0.012173,-0.012496,0.970703,-0.215332,-0.217529,-0.446438,-0.576155,0.456765,-0.510004
28301,,9.880349,0.424374,-0.751101,0.025650,-0.007566,-0.014414,0.972900,-0.217529,-0.217285,-0.446375,-0.576227,0.456743,-0.509997
28302,,9.903975,0.474826,-0.800534,0.023543,-0.002097,-0.015823,0.970703,-0.215332,-0.217529,-0.446318,-0.576297,0.456700,-0.510007
28303,,9.882719,0.509963,-0.837844,0.020578,0.000134,-0.011164,0.966309,-0.217529,-0.213135,-0.446263,-0.576345,0.456666,-0.510031
28304,,9.863698,0.561770,-0.844933,0.005902,-0.000558,-0.013207,0.968262,-0.213135,-0.219727,-0.446253,-0.576366,0.456672,-0.510011
28305,,9.820962,0.564644,-0.802955,-0.011155,0.002487,-0.012696,0.972900,-0.217529,-0.213135,-0.446308,-0.576331,0.456721,-0.509958
28306,,9.858856,0.464615,-0.788568,-0.015949,0.004129,-0.013406,0.968506,-0.215332,-0.217529,-0.446373,-0.576292,0.456772,-0.509900
28307,,9.857566,0.424366,-0.745308,0.001420,0.000858,-0.012049,0.972900,-0.217529,-0.217285,-0.446375,-0.576299,0.456780,-0.509884
28308,,9.838544,0.476332,-0.752104,0.010678,0.003652,-0.014449,0.970703,-0.217529,-0.215332,-0.446364,-0.576323,0.456761,-0.509883
28309,,9.891205,0.487053,-0.741134,0.013081,0.003803,-0.013122,0.970703,-0.215332,-0.213135,-0.446333,-0.576358,0.456720,-0.509907
28310,,9.875547,0.499743,-0.785737,0.015473,0.002010,-0.013735,0.968506,-0.217529,-0.215332,-0.446303,-0.576395,0.456695,-0.509914
28311,,9.855264,0.510202,-0.749524,0.012769,0.004030,-0.014986,0.972900,-0.215332,-0.215332,-0.446286,-0.576427,0.456657,-0.509927
28312,,9.868630,0.483307,-0.734469,0.005300,0.003786,-0.013055,0.968262,-0.210938,-0.219727,-0.446287,-0.576435,0.456655,-0.509918
28313,,9.860796,0.490215,-0.756471,0.008597,0.005214,-0.011963,0.970703,-0.213135,-0.219727,-0.446305,-0.576424,0.456665,-0.509907
28314,,9.858570,0.474590,-0.786199,0.010990,0.003421,-0.012575,0.970459,-0.213135,-0.217529,-0.446288,-0.576445,0.456651,-0.509911
28315,,9.852922,0.498300,-0.778227,0.008588,0.003269,-0.013900,0.975098,-0.213135,-0.215332,-0.446307,-0.576442,0.456660,-0.509889
28316,,9.875336,0.507192,-0.783619,0.005892,0.007232,-0.013214,0.972900,-0.213135,-0.219727,-0.446315,-0.576443,0.456649,-0.509891
28317,,9.860683,0.495234,-0.754676,-0.003093,0.006166,-0.014784,0.972900,-0.215332,-0.217529,-0.446374,-0.576412,0.456674,-0.509852
28318,,9.841660,0.449792,-0.785956,0.001399,0.006699,-0.013997,0.968262,-0.210938,-0.215576,-0.446395,-0.576406,0.456673,-0.509840
28319,,9.866263,0.475616,-0.761076,0.008869,0.006945,-0.015923,0.972900,-0.219727,-0.215088,-0.446424,-0.576402,0.456664,-0.509828
28320,,9.828210,0.480573,-0.799421,0.014294,0.006796,-0.009538,0.968506,-0.215332,-0.217529,-0.446397,-0.576415,0.456642,-0.509856
28321,,9.861808,0.541937,-0.795241,0.007975,0.005667,-0.015686,0.966553,-0.223877,-0.212891,-0.446391,-0.576441,0.456603,-0.509868
28322,,9.816912,0.528083,-0.782827,-0.000995,0.008487,-0.013383,0.972900,-0.215332,-0.213135,-0.446422,-0.576424,0.456606,-0.509857
28323,,9.835976,0.478741,-0.775091,-0.001585,0.005038,-0.013220,0.972900,-0.219727,-0.210938,-0.446416,-0.576440,0.456578,-0.509868
28324,,9.849399,0.451756,-0.759873,0.006506,0.004832,-0.011413,0.970459,-0.213135,-0.213135,-0.446412,-0.576445,0.456576,-0.509869
28325,,9.873970,0.477400,-0.735141,0.012468,0.006202,-0.014895,0.970703,-0.219727,-0.215088,-0.446395,-0.576475,0.456527,-0.509893
28326,,9.866161,0.484338,-0.756886,0.019058,0.009064,-0.012708,0.968506,-0.217529,-0.217285,-0.446368,-0.576500,0.456480,-0.509931
28327,,9.835936,0.483510,-0.772633,0.021148,0.009444,-0.013244,0.970703,-0.215332,-0.215332,-0.446317,-0.576547,0.456396,-0.509997
28328,,9.884133,0.558433,-0.796349,0.012443,0.012045,-0.016845,0.966309,-0.217529,-0.221680,-0.446326,-0.576559,0.456347,-0.510020
28329,,9.860521,0.510549,-0.746538,0.008604,0.007155,-0.010009,0.972656,-0.213135,-0.215332,-0.446318,-0.576560,0.456332,-0.510039
28330,,9.828177,0.492838,-0.792321,0.003193,0.011187,-0.012519,0.970459,-0.213135,-0.215332,-0.446341,-0.576543,0.456321,-0.510048
28331,,9.830318,0.510750,-0.761331,0.002914,0.007513,-0.010491,0.968262,-0.213135,-0.211182,-0.446372,-0.576514,0.456338,-0.510038
28332,,9.845888,0.500640,-0.715801,0.006780,0.006556,-0.015368,0.972900,-0.215332,-0.215332,-0.446382,-0.576524,0.456320,-0.510035
28333,,9.866165,0.492827,-0.751328,0.014282,0.002906,-0.013393,0.968506,-0.215332,-0.217529,-0.446366,-0.576547,0.456299,-0.510041
28334,,9.860459,0.516552,-0.743221,0.017854,0.008012,-0.014324,0.968506,-0.215332,-0.213135,-0.446345,-0.576575,0.456253,-0.510070
28335,,9.858345,0.500806,-0.772639,0.016383,0.007179,-0.010055,0.970703,-0.215332,-0.215332,-0.446319,-0.576589,0.456222,-0.510104
28336,,9.910976,0.511604,-0.761373,0.013668,0.005301,-0.015181,0.966309,-0.215332,-0.215332,-0.446305,-0.576617,0.456189,-0.510113
28337,,9.872981,0.516343,-0.799550,0.001415,0.012521,-0.008178,0.968506,-0.217529,-0.217285,-0.446330,-0.576580,0.456191,-0.510133
28338,,9.840704,0.498389,-0.845239,0.012785,0.007917,-0.011074,0.972900,-0.213135,-0.217529,-0.446314,-0.576590,0.456166,-0.510157
28339,,9.867333,0.540854,-0.790018,0.007372,0.011944,-0.013587,0.970703,-0.217529,-0.213135,-0.446336,-0.576579,0.456140,-0.510175
28340,,9.832376,0.537881,-0.724580,-0.004585,0.013099,-0.010529,0.970459,-0.213135,-0.217529,-0.446381,-0.576535,0.456150,-0.510175
28341,,9.834857,0.458174,-0.718106,0.003807,0.008784,-0.010718,0.970459,-0.213135,-0.217529,-0.446396,-0.576519,0.456145,-0.510185
28342,,9.845888,0.511852,-0.707832,0.005897,0.009166,-0.011253,0.968506,-0.217529,-0.213135,-0.446403,-0.576511,0.456135,-0.510196
28343,,9.823460,0.505319,-0.701171,0.014567,0.008524,-0.013467,0.966309,-0.215332,-0.217529,-0.446395,-0.576525,0.456096,-0.510222
28344,,9.836029,0.502874,-0.758970,0.010109,0.004086,-0.010368,0.968262,-0.213135,-0.211182,-0.446376,-0.576538,0.456089,-0.510231
28345,,9.871904,0.483421,-0.749884,0.014011,-0.000768,-0.011348,0.972900,-0.217529,-0.210938,-0.446351,-0.576562,0.456088,-0.510227
28346,,9.886528,0.497626,-0.777912,0.011003,0.007309,-0.008664,0.968506,-0.215332,-0.217529,-0.446333,-0.576564,0.456076,-0.510250
28347,,9.852670,0.535942,-0.756091,0.008877,0.008875,-0.013953,0.970459,-0.213135,-0.213135,-0.446333,-0.576574,0.456039,-0.510272
28348,,9.886546,0.499845,-0.776259,0.004698,0.010056,-0.010947,0.968506,-0.215332,-0.213135,-0.446345,-0.576561,0.456030,-0.510285
28349,,9.847443,0.462942,-0.771342,0.005314,0.007662,-0.009152,0.966309,-0.215332,-0.215332,-0.446357,-0.576541,0.456036,-0.510292
28350,,9.871919,0.488513,-0.746382,0.012476,0.008139,-0.012923,0.966309,-0.219727,-0.217285,-0.446347,-0.576554,0.456007,-0.510312
28351,,9.864146,0.495346,-0.768066,0.016657,0.008904,-0.013990,0.975098,-0.213135,-0.217529,-0.446320,-0.576585,0.455947,-0.510354
28352,,9.838025,0.528170,-0.723730,0.017858,0.009957,-0.012356,0.970703,-0.213135,-0.219727,-0.446298,-0.576604,0.455901,-0.510393
28353,,9.802094,0.549472,-0.732103,0.009220,0.004754,-0.008192,0.968506,-0.215332,-0.215332,-0.446302,-0.576587,0.455920,-0.510390
28354,,9.849484,0.484993,-0.737973,0.002637,0.001880,-0.010387,0.972900,-0.213135,-0.221680,-0.446300,-0.576589,0.455937,-0.510375
28355,,9.851474,0.502820,-0.707734,0.007127,0.002423,-0.009591,0.970703,-0.215332,-0.217529,-0.446301,-0.576583,0.455956,-0.510364
28356,,9.883340,0.449517,-0.758583,0.011618,0.002966,-0.008794,0.970703,-0.217529,-0.217285,-0.446272,-0.576598,0.455952,-0.510377
28357,,9.833866,0.498829,-0.782240,0.021180,0.003605,-0.011230,0.977051,-0.213135,-0.208740,-0.446221,-0.576639,0.455908,-0.510413
28358,,9.869790,0.479353,-0.772822,0.015491,0.005902,-0.009790,0.968750,-0.221924,-0.221436,-0.446190,-0.576657,0.455885,-0.510440
28359,,9.866033,0.519601,-0.734844,0.007128,0.002421,-0.009588,0.977051,-0.210938,-0.217529,-0.446162,-0.576676,0.455872,-0.510455
28360,,9.839571,0.478939,-0.788811,0.012509,0.004242,-0.009022,0.975098,-0.215332,-0.219482,-0.446134,-0.576690,0.455862,-0.510473
28361,,9.833785,0.502262,-0.781062,0.007436,0.000249,-0.009656,0.970703,-0.217529,-0.215332,-0.446137,-0.576685,0.455891,-0.510450
28362,,9.871694,0.499801,-0.741865,0.006819,0.002642,-0.011450,0.968262,-0.213135,-0.217529,-0.446128,-0.576696,0.455892,-0.510445
28363,,9.833710,0.504159,-0.780787,0.010727,0.001688,-0.008556,0.968506,-0.215332,-0.215332,-0.446105,-0.576705,0.455897,-0.510450
28364,,9.871650,0.501447,-0.741337,0.016690,0.006957,-0.008153,0.972900,-0.215332,-0.217529,-0.446069,-0.576720,0.455873,-0.510487
28365,,9.858114,0.530219,-0.755773,0.010418,0.003858,-0.008486,0.972900,-0.215332,-0.213135,-0.446052,-0.576722,0.455873,-0.510498
28366,,9.839455,0.483829,-0.787278,0.007437,0.002197,-0.007720,0.968506,-0.217529,-0.219482,-0.446030,-0.576727,0.455885,-0.510501
28367,,9.877385,0.481233,-0.747865,0.008910,0.004972,-0.010047,0.966309,-0.217529,-0.210938,-0.446016,-0.576734,0.455874,-0.510515
28368,,9.877361,0.482116,-0.747614,0.004147,0.000757,-0.008818,0.968506,-0.215332,-0.215332,-0.446003,-0.576738,0.455894,-0.510504
28369,,9.849157,0.497447,-0.734031,0.005654,0.003542,-0.003392,0.970703,-0.215332,-0.217529,-0.445977,-0.576727,0.455912,-0.510524
28370,,9.863792,0.511538,-0.761973,-0.000379,0.004100,-0.013506,0.970947,-0.221680,-0.212891,-0.445997,-0.576723,0.455923,-0.510502
28371,,9.875324,0.467554,-0.776821,0.003256,0.001430,-0.006654,0.966064,-0.213135,-0.213379,-0.445966,-0.576733,0.455926,-0.510515
28372,,9.854866,0.477594,-0.740797,0.004729,0.002255,-0.010912,0.968262,-0.213135,-0.213135,-0.445960,-0.576739,0.455935,-0.510505
28373,,9.861713,0.497437,-0.791391,0.012509,0.002292,-0.010944,0.970703,-0.217529,-0.213135,-0.445957,-0.576741,0.455944,-0.510496
28374,,9.849015,0.502101,-0.732772,0.004420,0.004424,-0.010842,0.968506,-0.215332,-0.210938,-0.445957,-0.576741,0.455950,-0.510492
28375,,9.839265,0.491745,-0.784746,0.004110,0.006595,-0.010774,0.970703,-0.217529,-0.210938,-0.445959,-0.576737,0.455941,-0.510502
28376,,9.877194,0.489225,-0.745196,0.004146,0.002706,-0.006884,0.972900,-0.217529,-0.213135,-0.445946,-0.576731,0.455962,-0.510501
28377,,9.835416,0.532730,-0.746435,0.002638,0.003820,-0.008446,0.975098,-0.217529,-0.215088,-0.445932,-0.576734,0.455960,-0.510513
28378,,9.846993,0.488687,-0.761142,0.004420,0.004424,-0.010840,0.968262,-0.210938,-0.213379,-0.445931,-0.576734,0.455965,-0.510509
28379,,9.841171,0.511937,-0.753372,0.006855,0.000700,-0.005620,0.970703,-0.215332,-0.213135,-0.445919,-0.576723,0.455998,-0.510503
28380,,9.846955,0.490148,-0.760691,0.006818,0.004587,-0.009508,0.968750,-0.221924,-0.210693,-0.445909,-0.576725,0.456000,-0.510507
28381,,9.869346,0.498701,-0.766210,0.009528,0.002581,-0.008244,0.972656,-0.213135,-0.213135,-0.445864,-0.576751,0.455977,-0.510538
28382,,9.862449,0.480594,-0.715138,0.005036,0.003983,-0.007113,0.972900,-0.215332,-0.215332,-0.445851,-0.576745,0.455992,-0.510542
28383,,9.875121,0.477754,-0.773192,0.002640,0.001867,-0.010375,0.975098,-0.219727,-0.212891,-0.445866,-0.576733,0.456019,-0.510519
28384,,9.890621,0.467723,-0.727883,0.005310,0.005699,-0.011069,0.968506,-0.215332,-0.221680,-0.445867,-0.576731,0.456019,-0.510520
28385,,9.836085,0.441864,-0.768271,0.017581,0.004338,-0.012227,0.975098,-0.215332,-0.215332,-0.445827,-0.576769,0.455975,-0.510552
28386,,9.885843,0.533462,-0.762723,0.019978,0.006454,-0.008964,0.968506,-0.219727,-0.219482,-0.445781,-0.576794,0.455941,-0.510593
28387,,9.847912,0.537575,-0.801367,0.008909,0.004969,-0.010035,0.974854,-0.213135,-0.213135,-0.445763,-0.576805,0.455925,-0.510611
28388,,9.839066,0.502670,-0.780301,0.000858,0.001261,-0.007980,0.972900,-0.215332,-0.215332,-0.445758,-0.576799,0.455955,-0.510596
28389,,9.824392,0.490261,-0.751811,-0.000651,0.002373,-0.009543,0.970703,-0.215332,-0.217529,-0.445782,-0.576775,0.455992,-0.510568
28390,,9.817478,0.472291,-0.700870,0.006548,0.000918,-0.007476,0.968506,-0.219727,-0.213135,-0.445759,-0.576781,0.456009,-0.510566
28391,,9.832073,0.486383,-0.729299,0.011043,-0.002434,-0.010533,0.973145,-0.221680,-0.217285,-0.445718,-0.576818,0.456002,-0.510568
28392,,9.882653,0.480481,-0.748486,0.001131,0.002975,-0.011934,0.975098,-0.217529,-0.215088,-0.445727,-0.576816,0.456015,-0.510550
28393,,9.910830,0.466763,-0.761944,0.003883,-0.004866,-0.008710,0.970459,-0.213135,-0.215332,-0.445679,-0.576853,0.456018,-0.510547
28394,,9.829976,0.472176,-0.759719,0.001477,-0.001129,-0.006183,0.964111,-0.217529,-0.217529,-0.445663,-0.576850,0.456057,-0.510530
28395,,9.848413,0.520368,-0.728100,0.000245,-0.000255,-0.013631,0.970703,-0.213135,-0.219727,-0.445685,-0.576847,0.456084,-0.510489
28396,,9.858102,0.459584,-0.773193,0.000861,-0.000692,-0.009906,0.964111,-0.215332,-0.219727,-0.445681,-0.576850,0.456113,-0.510464
28397,,9.872684,0.473816,-0.801583,0.010732,-0.000263,-0.010463,0.974854,-0.208740,-0.219727,-0.445675,-0.576854,0.456136,-0.510444
28398,,9.824940,0.540051,-0.795674,0.013403,0.001618,-0.013085,0.959717,-0.217529,-0.221680,-0.445649,-0.576886,0.456118,-0.510447
28399,,9.851230,0.509111,-0.838912,0.008053,0.001759,-0.003981,0.968506,-0.215332,-0.215332,-0.445649,-0.576856,0.456172,-0.510432
28400,,9.860882,0.521204,-0.786432,0.006551,-0.001034,-0.009401,0.966064,-0.213135,-0.211182,-0.445626,-0.576871,0.456189,-0.510420
28401,,9.874478,0.493868,-0.771274,0.000849,0.005162,-0.004120,0.968506,-0.215332,-0.217529,-0.445640,-0.576830,0.456234,-0.510414
28402,,9.865696,0.458781,-0.750095,0.009218,0.002799,-0.010095,0.968750,-0.221924,-0.215088,-0.445620,-0.576843,0.456233,-0.510418
28403,,9.857901,0.465141,-0.772439,0.014020,0.001182,-0.009358,0.970459,-0.213135,-0.213135,-0.445569,-0.576879,0.456208,-0.510444
28404,,9.884090,0.507684,-0.718113,0.008325,0.003473,-0.007934,0.972900,-0.215332,-0.217529,-0.445548,-0.576883,0.456214,-0.510452
28405,,9.827697,0.464300,-0.788793,0.005659,-0.000361,-0.007239,0.972900,-0.217529,-0.213135,-0.445545,-0.576873,0.456251,-0.510433
28406,,9.851960,0.489835,-0.764643,0.004149,0.000749,-0.008802,0.972900,-0.215332,-0.217529,-0.445532,-0.576877,0.456271,-0.510422
28407,,9.882080,0.493014,-0.747909,0.008330,0.001520,-0.009860,0.972900,-0.217529,-0.217285,-0.445515,-0.576888,0.456272,-0.510424
28408,,9.857729,0.469176,-0.772197,0.002377,-0.003760,-0.010266,0.968506,-0.217529,-0.219482,-0.445500,-0.576903,0.456303,-0.510392
28409,,9.844043,0.498054,-0.787291,0.005038,0.002026,-0.009033,0.975098,-0.217529,-0.217285,-0.445487,-0.576908,0.456310,-0.510392
28410,,9.865397,0.465629,-0.749797,0.011626,-0.000939,-0.012613,0.966309,-0.215332,-0.219727,-0.445459,-0.576941,0.456304,-0.510385
28411,,9.879963,0.479934,-0.778190,0.009531,0.000627,-0.010156,0.974854,-0.210938,-0.217529,-0.445441,-0.576955,0.456309,-0.510381
28412,,9.827389,0.470698,-0.788848,0.015796,0.003738,-0.009815,0.968506,-0.217529,-0.213135,-0.445403,-0.576979,0.456290,-0.510403
28413,,9.866266,0.509705,-0.792735,0.015488,0.003954,-0.011675,0.972900,-0.217529,-0.215088,-0.445394,-0.576989,0.456280,-0.510408
28414,,9.866246,0.510661,-0.792371,0.006814,0.004580,-0.009493,0.968506,-0.215332,-0.217529,-0.445383,-0.576991,0.456283,-0.510412
28415,,9.857483,0.475783,-0.771287,0.004149,0.000746,-0.008798,0.972900,-0.215332,-0.223877,-0.445376,-0.576990,0.456303,-0.510402
28416,,9.861453,0.437268,-0.808514,0.011888,0.004676,-0.012707,0.968262,-0.213135,-0.217529,-0.445360,-0.577010,0.456283,-0.510411
28417,,9.859308,0.494856,-0.740766,0.009218,0.002796,-0.010085,0.973145,-0.221680,-0.212891,-0.445367,-0.577001,0.456306,-0.510395
28418,,9.900307,0.477280,-0.811970,0.004409,0.006363,-0.008898,0.970703,-0.215332,-0.215332,-0.445367,-0.576991,0.456313,-0.510401
28419,,9.849649,0.484949,-0.792349,0.010414,0.003857,-0.008454,0.970459,-0.210938,-0.213379,-0.445329,-0.577011,0.456290,-0.510431
28420,,9.857396,0.480324,-0.769586,0.007128,0.002409,-0.009555,0.966309,-0.215332,-0.215332,-0.445314,-0.577019,0.456297,-0.510429
28421,,9.834987,0.473531,-0.763457,-0.000073,0.003851,-0.011627,0.975342,-0.219727,-0.215088,-0.445357,-0.576986,0.456338,-0.510391
28422,,9.857325,0.482456,-0.769158,-0.003624,-0.001262,-0.010701,0.972900,-0.215332,-0.213135,-0.445367,-0.576982,0.456377,-0.510352
28423,,9.878704,0.450288,-0.731609,-0.002156,0.001510,-0.013024,0.975098,-0.217529,-0.217285,-0.445379,-0.576985,0.456385,-0.510331
28424,,9.876795,0.434262,-0.761562,0.008953,-0.000867,-0.008054,0.970703,-0.215332,-0.217529,-0.445347,-0.577002,0.456399,-0.510328
28425,,9.851262,0.508206,-0.761639,0.015186,0.002218,-0.015449,0.975098,-0.215332,-0.217285,-0.445329,-0.577038,0.456368,-0.510331
28426,,9.863965,0.505683,-0.819732,0.010999,0.003398,-0.012467,0.972900,-0.217529,-0.217285,-0.445311,-0.577058,0.456354,-0.510335
28427,,9.857079,0.488165,-0.768708,0.013404,0.001614,-0.013058,0.970947,-0.223877,-0.215088,-0.445290,-0.577086,0.456335,-0.510339
28428,,9.869797,0.485559,-0.826745,0.004106,0.004621,-0.012679,0.968750,-0.221924,-0.219482,-0.445296,-0.577089,0.456336,-0.510331
28429,,9.826862,0.488208,-0.784763,-0.003359,0.002396,-0.012725,0.964111,-0.217529,-0.213135,-0.445276,-0.577117,0.456310,-0.510340
28430,,9.868803,0.447048,-0.782743,-0.001577,0.002998,-0.015112,0.966309,-0.215332,-0.217529,-0.445301,-0.577117,0.456322,-0.510308
28431,,9.885214,0.478751,-0.780782,0.007399,0.004117,-0.013500,0.968506,-0.217529,-0.213135,-0.445304,-0.577125,0.456314,-0.510303
28432,,9.850933,0.517297,-0.759770,0.002919,0.001602,-0.016229,0.970703,-0.215332,-0.217529,-0.445316,-0.577140,0.456314,-0.510275
28433,,9.854987,0.478988,-0.796908,0.006811,0.004579,-0.009483,0.975342,-0.221680,-0.212891,-0.445309,-0.577139,0.456314,-0.510282
28434,,9.849031,0.502475,-0.789103,0.010999,0.003399,-0.012460,0.966309,-0.215332,-0.217529,-0.445292,-0.577160,0.456301,-0.510286
28435,,9.883253,0.466557,-0.809414,0.016952,0.006731,-0.013974,0.970703,-0.217529,-0.217285,-0.445256,-0.577200,0.456240,-0.510326
28436,,9.854934,0.482422,-0.795498,0.015749,0.007621,-0.013677,0.968506,-0.217529,-0.217285,-0.445238,-0.577223,0.456201,-0.510350
28437,,9.836186,0.509929,-0.729267,0.013089,0.003785,-0.012982,0.968506,-0.219727,-0.213135,-0.445214,-0.577251,0.456171,-0.510366
28438,,9.811949,0.486216,-0.753213,0.006829,0.000665,-0.013325,0.966309,-0.217529,-0.219482,-0.445205,-0.577271,0.456172,-0.510351
28439,,9.864399,0.497767,-0.742251,0.004423,0.002446,-0.012735,0.972656,-0.210938,-0.217529,-0.445193,-0.577290,0.456159,-0.510351
28440,,9.871186,0.517548,-0.792943,0.005934,0.001342,-0.011170,0.972900,-0.215332,-0.213135,-0.445183,-0.577302,0.456166,-0.510341
28441,,9.886673,0.507907,-0.747764,0.004422,0.002446,-0.012734,0.970703,-0.217529,-0.213135,-0.445211,-0.577287,0.456193,-0.510308
28442,,9.883019,0.475011,-0.807347,-0.000382,0.004052,-0.013477,0.968506,-0.215332,-0.219727,-0.445231,-0.577283,0.456204,-0.510286
28443,,9.860636,0.468242,-0.801103,0.016680,0.005026,-0.010015,0.970703,-0.213135,-0.219727,-0.445199,-0.577304,0.456178,-0.510314
28444,,9.898520,0.466191,-0.761558,0.015794,0.003746,-0.009782,0.968506,-0.215332,-0.213135,-0.445162,-0.577328,0.456159,-0.510336
28445,,9.832269,0.484657,-0.787210,0.018780,0.003457,-0.012459,0.973145,-0.219727,-0.219482,-0.445144,-0.577348,0.456141,-0.510345
28446,,9.834037,0.502804,-0.756944,0.014283,0.004849,-0.011344,0.970703,-0.219727,-0.219482,-0.445117,-0.577370,0.456119,-0.510363
28447,,9.834012,0.503785,-0.756614,0.011307,0.003181,-0.010587,0.966309,-0.215332,-0.215332,-0.445075,-0.577403,0.456086,-0.510391
28448,,9.869148,0.508843,-0.820466,0.001130,0.002943,-0.011910,0.966309,-0.217529,-0.213135,-0.445084,-0.577402,0.456100,-0.510373
28449,,9.881069,0.464768,-0.835220,0.001485,-0.001143,-0.006164,0.970459,-0.210938,-0.215332,-0.445072,-0.577395,0.456137,-0.510358
28450,,9.881036,0.465734,-0.835079,-0.000382,0.004045,-0.013474,0.968262,-0.213135,-0.217529,-0.445091,-0.577391,0.456148,-0.510335
28451,,9.846689,0.503964,-0.813969,0.001119,0.004899,-0.009987,0.970703,-0.215332,-0.219482,-0.445139,-0.577348,0.456199,-0.510298
28452,,9.861281,0.518113,-0.841779,0.004402,0.006354,-0.008884,0.968506,-0.217529,-0.217285,-0.445138,-0.577338,0.456206,-0.510304
28453,,9.826109,0.515043,-0.776989,0.004980,0.007846,-0.010973,0.968262,-0.210938,-0.215576,-0.445151,-0.577325,0.456203,-0.510309
28454,,9.862218,0.496083,-0.767119,-0.000970,0.004509,-0.009461,0.966309,-0.217529,-0.215332,-0.445163,-0.577309,0.456226,-0.510295
28455,,9.845845,0.466631,-0.768269,0.006810,0.004574,-0.009469,0.975098,-0.217529,-0.217285,-0.445174,-0.577293,0.456246,-0.510286
28456,,9.892305,0.500549,-0.749586,0.011886,0.004674,-0.012669,0.968506,-0.219727,-0.217285,-0.445158,-0.577313,0.456227,-0.510296
28457,,9.845816,0.468592,-0.767443,0.009207,0.004751,-0.008134,0.970703,-0.215332,-0.217529,-0.445126,-0.577326,0.456208,-0.510324
28458,,9.853563,0.464033,-0.744622,0.005039,0.002015,-0.009006,0.972900,-0.215332,-0.217529,-0.445114,-0.577329,0.456223,-0.510319
28459,,9.869890,0.495361,-0.742738,0.006502,0.004785,-0.011325,0.970459,-0.208740,-0.215576,-0.445124,-0.577323,0.456229,-0.510312
28460,,9.860357,0.484609,-0.794774,0.002323,0.004006,-0.010277,0.975098,-0.215332,-0.217285,-0.445127,-0.577317,0.456243,-0.510303
28461,,9.817375,0.486783,-0.752971,0.006551,0.000913,-0.007439,0.970703,-0.219727,-0.215088,-0.445143,-0.577292,0.456293,-0.510274
28462,,9.852545,0.491570,-0.816946,0.007129,0.002404,-0.009528,0.968506,-0.217529,-0.217285,-0.445127,-0.577299,0.456300,-0.510272
28463,,9.831898,0.501780,-0.781089,0.007142,0.000446,-0.011447,0.972656,-0.210938,-0.217529,-0.445100,-0.577327,0.456287,-0.510276
28464,,9.831020,0.461829,-0.737741,0.010755,-0.002223,-0.012325,0.975342,-0.219727,-0.215088,-0.445070,-0.577361,0.456287,-0.510264
28465,,9.867885,0.484022,-0.772254,0.012267,-0.003324,-0.010759,0.968506,-0.215332,-0.217529,-0.445042,-0.577388,0.456295,-0.510250
28466,,9.873875,0.462246,-0.779621,0.013999,0.005108,-0.005460,0.964111,-0.217529,-0.213135,-0.445002,-0.577395,0.456290,-0.510282
28467,,9.852312,0.496083,-0.817028,0.013717,0.001402,-0.011157,0.973145,-0.221680,-0.219238,-0.444974,-0.577419,0.456279,-0.510289
28468,,9.831664,0.506279,-0.781132,0.009218,0.002791,-0.010048,0.968506,-0.215332,-0.215332,-0.444954,-0.577432,0.456278,-0.510293
28469,,9.846211,0.520541,-0.809298,0.000246,0.001653,-0.011670,0.975342,-0.219727,-0.217285,-0.444953,-0.577439,0.456282,-0.510282
28470,,9.873767,0.466024,-0.778739,0.002322,0.004001,-0.010274,0.975098,-0.215332,-0.213135,-0.444956,-0.577434,0.456295,-0.510273
28471,,9.859152,0.453651,-0.750251,0.008961,-0.000867,-0.008019,0.977295,-0.217529,-0.212891,-0.444919,-0.577456,0.456295,-0.510281
28472,,9.876208,0.525948,-0.792164,0.016691,0.003072,-0.011906,0.964111,-0.215332,-0.219727,-0.444883,-0.577489,0.456269,-0.510298
28473,,9.859864,0.496645,-0.793461,0.011000,0.003391,-0.012425,0.977295,-0.217529,-0.217285,-0.444872,-0.577505,0.456256,-0.510302
28474,,9.852092,0.502899,-0.815519,0.010972,0.007308,-0.008586,0.970703,-0.219727,-0.217285,-0.444853,-0.577506,0.456245,-0.510326
28475,,9.865914,0.475859,-0.799708,0.008883,0.006918,-0.008063,0.968506,-0.215332,-0.213135,-0.444828,-0.577513,0.456223,-0.510360
28476,,9.882211,0.507070,-0.797688,0.008013,0.003679,-0.009750,0.968506,-0.215332,-0.219727,-0.444813,-0.577520,0.456224,-0.510364
28477,,9.822924,0.478934,-0.757261,0.001117,0.004887,-0.009980,0.972900,-0.217529,-0.213135,-0.444838,-0.577496,0.456250,-0.510346
28478,,9.837488,0.493050,-0.785316,0.002951,0.001619,-0.008474,0.966309,-0.217529,-0.221680,-0.444829,-0.577494,0.456273,-0.510336
28479,,9.873625,0.474153,-0.775625,0.007385,0.006057,-0.011545,0.968750,-0.221924,-0.223633,-0.444826,-0.577498,0.456259,-0.510346
28480,,9.851261,0.467144,-0.769516,-0.000022,-0.000052,-0.007721,0.968506,-0.217529,-0.217285,-0.444820,-0.577492,0.456295,-0.510326
28481,,9.845154,0.490557,-0.762195,-0.001520,-0.000912,-0.011204,0.975098,-0.215332,-0.223877,-0.444812,-0.577505,0.456308,-0.510306
28482,,9.867443,0.499347,-0.768127,0.001490,-0.001150,-0.006154,0.970703,-0.213135,-0.223877,-0.444796,-0.577502,0.456347,-0.510290
28483,,9.864013,0.465787,-0.827841,0.003527,0.003108,-0.010560,0.975098,-0.215332,-0.213135,-0.444825,-0.577477,0.456386,-0.510257
28484,,9.865668,0.484004,-0.797854,0.006260,-0.000839,-0.011203,0.972900,-0.217529,-0.215088,-0.444809,-0.577495,0.456397,-0.510241
28485,,9.865615,0.485057,-0.797859,0.005938,0.001329,-0.011142,0.970703,-0.219727,-0.219482,-0.444802,-0.577504,0.456400,-0.510234
28486,,9.843247,0.478071,-0.791830,0.005923,0.003289,-0.009224,0.968506,-0.219727,-0.217285,-0.444791,-0.577507,0.456409,-0.510233
28487,,9.837149,0.501572,-0.784167,0.003220,0.003315,-0.012415,0.970703,-0.217529,-0.215332,-0.444780,-0.577524,0.456394,-0.510237
28488,,9.865522,0.488026,-0.797203,-0.000022,-0.000053,-0.007718,0.968506,-0.215332,-0.219727,-0.444774,-0.577518,0.456429,-0.510217
28489,,9.865492,0.488720,-0.797144,0.003257,0.001409,-0.006613,0.968506,-0.219727,-0.219482,-0.444768,-0.577506,0.456460,-0.510208
28490,,9.850892,0.476468,-0.768517,-0.000382,0.004021,-0.013458,0.970947,-0.221924,-0.215088,-0.444788,-0.577502,0.456471,-0.510185
28491,,9.835326,0.488206,-0.813403,0.005055,0.000049,-0.010908,0.968506,-0.217529,-0.217285,-0.444751,-0.577536,0.456452,-0.510196
28492,,9.892113,0.460267,-0.839704,0.000247,0.001643,-0.011661,0.970703,-0.215332,-0.223877,-0.444758,-0.577536,0.456472,-0.510172
28493,,9.847418,0.445499,-0.827777,-0.000076,0.003812,-0.011600,0.972900,-0.215332,-0.219482,-0.444783,-0.577520,0.456495,-0.510148
28494,,9.858503,0.475802,-0.745046,-0.005767,0.004125,-0.012122,0.970703,-0.219727,-0.215088,-0.444815,-0.577500,0.456524,-0.510117
28495,,9.877473,0.450757,-0.810128,-0.001012,0.006397,-0.015251,0.975098,-0.215332,-0.217285,-0.444845,-0.577494,0.456518,-0.510102
28496,,9.865250,0.496973,-0.795044,0.005939,0.001330,-0.011135,0.961914,-0.219727,-0.221680,-0.444834,-0.577506,0.456526,-0.510092
28497,,9.845261,0.548308,-0.802499,0.003779,0.006763,-0.012579,0.977295,-0.217529,-0.217285,-0.444847,-0.577502,0.456519,-0.510092
28498,,9.865213,0.499246,-0.794078,-0.004577,0.005195,-0.010495,0.970703,-0.215332,-0.217529,-0.444873,-0.577478,0.456547,-0.510070
28499,,9.855795,0.488519,-0.845831,-0.001030,0.008355,-0.013331,0.968506,-0.219727,-0.219482,-0.444910,-0.577457,0.456549,-0.510059
28500,,9.848989,0.471307,-0.794115,-0.003119,0.007963,-0.012809,0.973145,-0.221680,-0.217285,-0.444945,-0.577436,0.456561,-0.510043
28501,,9.883555,0.435616,-0.813749,0.004338,0.010212,-0.012745,0.968506,-0.217529,-0.213135,-0.444938,-0.577447,0.456515,-0.510078
28502,,9.849013,0.473734,-0.792374,0.010353,0.007733,-0.012280,0.970703,-0.219727,-0.217285,-0.444931,-0.577455,0.456494,-0.510093
28503,,9.842899,0.497381,-0.784222,0.005544,0.009323,-0.013033,0.977539,-0.219727,-0.217285,-0.444932,-0.577460,0.456460,-0.510117
28504,,9.850664,0.493332,-0.760755,0.002248,0.009818,-0.012222,0.968262,-0.210938,-0.217529,-0.444954,-0.577444,0.456455,-0.510120
28505,,9.828338,0.486649,-0.754116,0.005563,0.007363,-0.014947,0.968506,-0.215332,-0.217529,-0.444983,-0.577437,0.456447,-0.510111
28506,,9.842902,0.501308,-0.781683,0.003149,0.009137,-0.014366,0.966309,-0.215332,-0.215332,-0.445006,-0.577430,0.456435,-0.510109
28507,,9.879097,0.483003,-0.771559,-0.005188,0.005604,-0.014202,0.968506,-0.217529,-0.219482,-0.445059,-0.577401,0.456463,-0.510071
28508,,9.877470,0.467176,-0.800809,-0.001911,0.007070,-0.013095,0.966309,-0.215332,-0.217529,-0.445089,-0.577385,0.456472,-0.510055
28509,,9.863567,0.496301,-0.815339,-0.001010,0.006390,-0.015239,0.966309,-0.217529,-0.217529,-0.445127,-0.577371,0.456477,-0.510032
28510,,9.895229,0.517646,-0.767936,-0.004326,0.008844,-0.012513,0.970459,-0.213135,-0.217529,-0.445166,-0.577344,0.456490,-0.510017
28511,,9.826678,0.477644,-0.779499,0.002247,0.009817,-0.012215,0.970703,-0.217529,-0.215332,-0.445202,-0.577317,0.456495,-0.510013
28512,,9.842850,0.509224,-0.777212,0.005293,0.005667,-0.011000,0.970703,-0.219727,-0.210938,-0.445203,-0.577316,0.456494,-0.510014
28513,,9.852173,0.522357,-0.724089,-0.001030,0.008349,-0.013320,0.970703,-0.213135,-0.221924,-0.445217,-0.577314,0.456473,-0.510023
28514,,9.848336,0.448202,-0.739397,-0.001050,0.010309,-0.011403,0.966309,-0.215332,-0.217529,-0.445247,-0.577287,0.456478,-0.510022
28515,,9.819851,0.463670,-0.725680,0.010429,0.001913,-0.010303,0.968262,-0.213135,-0.217529,-0.445246,-0.577286,0.456495,-0.510009
28516,,9.886780,0.488735,-0.742775,0.006501,0.004780,-0.011287,0.966309,-0.217529,-0.215332,-0.445242,-0.577290,0.456493,-0.510009
28517,,9.864439,0.481806,-0.736572,0.009798,0.004288,-0.012095,0.973145,-0.219727,-0.221680,-0.445242,-0.577295,0.456490,-0.510008
28518,,9.842764,0.515833,-0.773937,0.006501,0.004780,-0.011286,0.972900,-0.215332,-0.217529,-0.445237,-0.577299,0.456488,-0.510008
28519,,9.848904,0.494434,-0.781002,0.005946,0.001331,-0.011117,0.968506,-0.217529,-0.217285,-0.445223,-0.577314,0.456486,-0.510005
28520,,9.862781,0.467885,-0.765559,0.005314,0.003705,-0.012910,0.970459,-0.213135,-0.215332,-0.445224,-0.577322,0.456485,-0.509996
28521,,9.854996,0.474362,-0.787928,0.006849,0.000651,-0.013260,0.972900,-0.215332,-0.215332,-0.445226,-0.577333,0.456492,-0.509976
28522,,9.847215,0.480876,-0.810208,0.010373,0.005775,-0.014174,0.968506,-0.215332,-0.226074,-0.445220,-0.577350,0.456470,-0.509982
28523,,9.861757,0.495438,-0.838162,0.008611,0.003212,-0.013715,0.970703,-0.213135,-0.221924,-0.445228,-0.577357,0.456470,-0.509968
28524,,9.850249,0.517947,-0.749698,0.001712,0.004401,-0.013954,0.970703,-0.219727,-0.212891,-0.445243,-0.577357,0.456473,-0.509950
28525,,9.870999,0.509919,-0.784767,-0.000421,0.007928,-0.009607,0.970703,-0.213135,-0.219727,-0.445265,-0.577332,0.456484,-0.509950
28526,,9.847155,0.485574,-0.808136,0.008567,0.007135,-0.009883,0.968506,-0.219727,-0.219482,-0.445257,-0.577332,0.456476,-0.509965
28527,,9.848711,0.503625,-0.777545,0.009753,0.008209,-0.008257,0.970703,-0.213135,-0.219727,-0.445248,-0.577324,0.456467,-0.509989
28528,,9.854924,0.482189,-0.784070,0.008837,0.008827,-0.013818,0.966553,-0.221924,-0.212891,-0.445253,-0.577329,0.456443,-0.510000
28529,,9.869508,0.496478,-0.811672,0.010961,0.007323,-0.008544,0.966309,-0.215332,-0.219727,-0.445229,-0.577336,0.456421,-0.510034
28530,,9.834162,0.493398,-0.746880,0.005540,0.009317,-0.013010,0.970947,-0.221924,-0.221436,-0.445242,-0.577330,0.456406,-0.510041
28531,,9.870405,0.474825,-0.736835,0.003837,0.002894,-0.008677,0.966064,-0.213135,-0.221924,-0.445225,-0.577336,0.456409,-0.510048
28532,,9.848078,0.467761,-0.730669,0.000810,0.005077,-0.011807,0.964355,-0.224121,-0.221436,-0.445239,-0.577328,0.456419,-0.510035
28533,,9.855779,0.463623,-0.707834,0.001772,0.000537,-0.010073,0.966309,-0.219727,-0.223877,-0.445227,-0.577337,0.456432,-0.510024
28534,,9.855736,0.464657,-0.707745,0.008038,0.001723,-0.011623,0.972900,-0.217529,-0.219482,-0.445212,-0.577354,0.456432,-0.510019
28535,,9.827784,0.521157,-0.738105,0.009822,0.002324,-0.013992,0.975098,-0.217529,-0.217285,-0.445190,-0.577386,0.456405,-0.510024
