// Start Time: Unknown
// Update Rate: 100.0Hz
// Filter Profile: human (46.1)
// Option Flags: AHS Disabled ICC Disabled 
// Firmware Version: 4.3.4
PacketCounter,SampleTimeFine,Acc_X,Acc_Y,Acc_Z,Gyr_X,Gyr_Y,Gyr_Z,Mag_X,Mag_Y,Mag_Z,Quat_q0,Quat_q1,Quat_q2,Quat_q3
27626,,9.857981,-0.260117,-1.129885,0.006473,0.032086,0.011532,0.984619,-0.335205,-0.148438,-0.455443,-0.530051,0.531994,-0.478122
27627,,9.846972,-0.244339,-1.113497,-0.003431,0.029867,0.013563,0.982422,-0.333008,-0.150635,-0.455501,-0.529993,0.532007,-0.478116
27628,,9.839015,-0.219422,-1.150919,-0.001448,0.031070,0.011509,0.984375,-0.326172,-0.148682,-0.455526,-0.529980,0.531987,-0.478129
27629,,9.837901,-0.174961,-1.118138,-0.009057,0.029075,0.014832,0.984619,-0.335205,-0.152832,-0.455593,-0.529910,0.532017,-0.478110
27630,,9.846837,-0.225799,-1.178786,-0.013103,0.026634,0.011623,0.982178,-0.328613,-0.146484,-0.455637,-0.529880,0.532035,-0.478080
27631,,9.837228,-0.255656,-1.192664,-0.002736,0.027376,0.014633,0.982422,-0.333008,-0.150635,-0.455685,-0.529827,0.532056,-0.478071
27632,,9.809030,-0.264699,-1.159858,0.005474,0.023044,0.013309,0.979980,-0.330811,-0.150879,-0.455666,-0.529844,0.532042,-0.478085
27633,,9.829073,-0.208755,-1.124396,0.010552,0.025824,0.012673,0.984619,-0.333008,-0.150635,-0.455681,-0.529827,0.532033,-0.478099
27634,,9.875896,-0.199836,-1.095162,0.003276,0.026658,0.011081,0.984619,-0.333008,-0.150635,-0.455683,-0.529836,0.532011,-0.478112
27635,,9.867456,-0.151536,-1.029239,-0.006869,0.025456,0.017074,0.984619,-0.330811,-0.150879,-0.455732,-0.529769,0.532055,-0.478090
27636,,9.839741,-0.184010,-1.100349,-0.030933,0.023412,0.013604,0.986816,-0.328369,-0.150879,-0.455810,-0.529702,0.532128,-0.478009
27637,,9.864081,-0.264905,-1.154656,-0.039891,0.022059,0.017422,0.984619,-0.333008,-0.152832,-0.455935,-0.529571,0.532255,-0.477894
27638,,9.825028,-0.280335,-1.212792,-0.030478,0.021932,0.018645,0.961914,-0.338135,-0.148193,-0.455996,-0.529495,0.532344,-0.477822
27639,,9.854588,-0.296237,-1.167123,-0.023118,0.020575,0.014593,0.982178,-0.326416,-0.153076,-0.456087,-0.529400,0.532442,-0.477730
27640,,9.825439,-0.282787,-1.208891,-0.023917,0.019220,0.014474,0.986816,-0.330811,-0.155273,-0.456133,-0.529356,0.532510,-0.477659
27641,,9.829688,-0.297023,-1.186755,-0.006887,0.021084,0.012384,0.982422,-0.333008,-0.152832,-0.456183,-0.529313,0.532551,-0.477612
27642,,9.844515,-0.305926,-1.251674,-0.004898,0.022288,0.010332,0.982422,-0.335449,-0.148438,-0.456197,-0.529316,0.532556,-0.477590
27643,,9.843293,-0.261340,-1.219794,-0.001362,0.018030,0.012062,0.979980,-0.330811,-0.153076,-0.456224,-0.529292,0.532593,-0.477551
27644,,9.857437,-0.246952,-1.181003,0.000880,0.022580,0.010757,0.982422,-0.333008,-0.155029,-0.456222,-0.529306,0.532584,-0.477546
27645,,9.853678,-0.234838,-1.198816,-0.008283,0.026052,0.010284,0.984375,-0.328613,-0.155273,-0.456298,-0.529249,0.532618,-0.477500
27646,,9.869346,-0.265874,-1.189196,-0.011668,0.029816,0.010234,0.982178,-0.330811,-0.150879,-0.456350,-0.529219,0.532621,-0.477480
27647,,9.879589,-0.238154,-1.169504,-0.007931,0.033232,0.010109,0.982178,-0.330811,-0.153076,-0.456440,-0.529150,0.532631,-0.477458
27648,,9.837465,-0.262107,-1.172898,-0.008881,0.032371,0.008312,0.986816,-0.328369,-0.153076,-0.456496,-0.529126,0.532618,-0.477447
27649,,9.826470,-0.245917,-1.156399,-0.000812,0.032879,0.010042,0.982178,-0.330811,-0.150879,-0.456566,-0.529075,0.532611,-0.477444
27650,,9.822837,-0.233668,-1.173446,-0.000417,0.031379,0.007744,0.982422,-0.335449,-0.150635,-0.456598,-0.529074,0.532577,-0.477452
27651,,9.823166,-0.234485,-1.170523,-0.001865,0.028180,0.009173,0.984375,-0.328613,-0.148682,-0.456660,-0.529032,0.532584,-0.477432
27652,,9.848703,-0.236958,-1.144055,-0.001614,0.031523,0.009926,0.984619,-0.330811,-0.155273,-0.456690,-0.529022,0.532559,-0.477442
27653,,9.839167,-0.266488,-1.157539,0.004014,0.032305,0.008682,0.986816,-0.333008,-0.150635,-0.456748,-0.528988,0.532537,-0.477448
27654,,9.816786,-0.233361,-1.127760,0.009790,0.032593,0.009115,0.989258,-0.333008,-0.155273,-0.456753,-0.529004,0.532480,-0.477489
27655,,9.859593,-0.211244,-1.118041,0.003908,0.028466,0.009613,0.982178,-0.330811,-0.153076,-0.456801,-0.528974,0.532473,-0.477485
27656,,9.830789,-0.197543,-1.158864,-0.001620,0.031519,0.009935,0.981934,-0.323975,-0.148682,-0.456831,-0.528964,0.532449,-0.477495
27657,,9.813823,-0.223225,-1.138902,0.004157,0.031806,0.010371,0.986816,-0.333008,-0.148438,-0.456882,-0.528929,0.532430,-0.477505
27658,,9.846748,-0.229976,-1.145896,0.007834,0.027054,0.013782,0.984375,-0.328613,-0.150879,-0.456866,-0.528941,0.532403,-0.477538
27659,,9.839569,-0.227285,-1.109746,0.010228,0.026757,0.009434,0.982422,-0.333008,-0.152832,-0.456889,-0.528934,0.532379,-0.477550
27660,,9.835922,-0.215365,-1.127388,0.011865,0.025130,0.012292,0.989014,-0.330566,-0.150879,-0.456861,-0.528964,0.532342,-0.477585
27661,,9.871185,-0.189550,-1.084716,0.001654,0.023913,0.010922,0.986572,-0.326172,-0.148682,-0.456898,-0.528937,0.532354,-0.477566
27662,,9.897792,-0.215555,-1.162399,-0.000385,0.027038,0.010371,0.982422,-0.333008,-0.148438,-0.456913,-0.528939,0.532338,-0.477568
27663,,9.865464,-0.211132,-1.149788,-0.007909,0.028890,0.012735,0.986816,-0.330811,-0.146240,-0.456979,-0.528879,0.532358,-0.477547
27664,,9.826902,-0.226156,-1.207440,-0.000934,0.029027,0.011002,0.982178,-0.328613,-0.148682,-0.456998,-0.528873,0.532341,-0.477555
27665,,9.869123,-0.304665,-1.203955,-0.008710,0.027537,0.012612,0.984619,-0.333008,-0.152832,-0.457062,-0.528817,0.532365,-0.477530
27666,,9.850512,-0.284947,-1.154480,0.012109,0.028461,0.013071,0.984375,-0.328613,-0.150879,-0.457040,-0.528837,0.532322,-0.477576
27667,,9.837873,-0.223604,-1.108607,0.016144,0.026536,0.011582,0.984619,-0.333008,-0.146240,-0.457045,-0.528835,0.532295,-0.477603
27668,,9.819041,-0.181695,-1.133212,0.019776,0.026110,0.012397,0.984375,-0.326172,-0.146484,-0.456999,-0.528880,0.532238,-0.477662
27669,,9.869489,-0.186319,-1.083399,0.013344,0.023982,0.013504,0.982178,-0.330811,-0.146240,-0.456991,-0.528881,0.532218,-0.477690
27670,,9.840813,-0.173093,-1.124767,0.007817,0.027039,0.013816,0.982422,-0.333008,-0.150635,-0.456975,-0.528893,0.532192,-0.477722
27671,,9.892791,-0.223430,-1.104620,0.000839,0.026904,0.015547,0.984375,-0.326172,-0.148682,-0.457009,-0.528846,0.532209,-0.477722
27672,,9.927922,-0.175889,-1.135386,0.010498,0.030101,0.017566,0.979980,-0.330811,-0.146240,-0.456986,-0.528846,0.532178,-0.477778
27673,,9.843211,-0.223570,-1.146348,-0.001451,0.026686,0.014241,0.984375,-0.326172,-0.148682,-0.457025,-0.528804,0.532192,-0.477772
27674,,9.879951,-0.243622,-1.133156,0.002835,0.028101,0.013510,0.989014,-0.330566,-0.148682,-0.457026,-0.528802,0.532174,-0.477793
27675,,9.841524,-0.281175,-1.117098,0.004323,0.026965,0.014695,0.982178,-0.328613,-0.148682,-0.457049,-0.528772,0.532173,-0.477805
27676,,9.869077,-0.229468,-1.114732,0.011192,0.023262,0.013896,0.984619,-0.330811,-0.148682,-0.457014,-0.528800,0.532147,-0.477837
27677,,9.825249,-0.208308,-1.089502,0.007701,0.023196,0.014760,0.982178,-0.330811,-0.144043,-0.457021,-0.528783,0.532151,-0.477845
27678,,9.864134,-0.195967,-1.026651,0.003412,0.021781,0.015492,0.982178,-0.330811,-0.150879,-0.456999,-0.528793,0.532151,-0.477855
27679,,9.854547,-0.203780,-1.115128,-0.004651,0.021286,0.013728,0.982422,-0.333008,-0.150635,-0.457035,-0.528754,0.532187,-0.477824
27680,,9.841136,-0.220854,-1.149863,-0.003975,0.023148,0.019522,0.984375,-0.328613,-0.148682,-0.457026,-0.528733,0.532212,-0.477827
27681,,9.827710,-0.238066,-1.184788,-0.005967,0.017601,0.016827,0.977783,-0.335449,-0.146240,-0.457051,-0.528690,0.532270,-0.477786
27682,,9.860579,-0.245220,-1.192432,-0.000769,0.024195,0.015311,0.984619,-0.330811,-0.153076,-0.457047,-0.528685,0.532274,-0.477792
27683,,9.831915,-0.254170,-1.160135,0.004066,0.023615,0.013959,0.984619,-0.330811,-0.150879,-0.457071,-0.528654,0.532291,-0.477784
27684,,9.878403,-0.245850,-1.130650,0.010528,0.021407,0.015469,0.984375,-0.328613,-0.150879,-0.457029,-0.528681,0.532275,-0.477812
27685,,9.830801,-0.211661,-1.125969,0.008382,0.020701,0.015834,0.980225,-0.335449,-0.148438,-0.457027,-0.528667,0.532288,-0.477815
27686,,9.846132,-0.243448,-1.116835,0.006097,0.020486,0.014521,0.984375,-0.326172,-0.146484,-0.456996,-0.528688,0.532282,-0.477827
27687,,9.892576,-0.235056,-1.087544,0.000321,0.020210,0.014064,0.984375,-0.328613,-0.153076,-0.457015,-0.528664,0.532308,-0.477807
27688,,9.860358,-0.208727,-1.149700,0.000712,0.023056,0.016504,0.989014,-0.328369,-0.148682,-0.457001,-0.528661,0.532315,-0.477816
27689,,9.860578,-0.210474,-1.147493,-0.004785,0.021796,0.019404,0.984619,-0.330811,-0.150879,-0.457026,-0.528608,0.532363,-0.477797
27690,,9.872183,-0.229337,-1.158583,-0.004379,0.020296,0.017101,0.984619,-0.333008,-0.148438,-0.457017,-0.528599,0.532389,-0.477787
27691,,9.848970,-0.274829,-1.210059,0.001777,0.023394,0.012659,0.979980,-0.328613,-0.155273,-0.457046,-0.528572,0.532404,-0.477773
27692,,9.823909,-0.296857,-1.157699,0.007030,0.021334,0.016348,0.987061,-0.337402,-0.148438,-0.457011,-0.528588,0.532399,-0.477794
27693,,9.872838,-0.233964,-1.152052,0.009174,0.022037,0.015989,0.989258,-0.335205,-0.146240,-0.457013,-0.528568,0.532413,-0.477798
27694,,9.882933,-0.206909,-1.133123,0.008897,0.023021,0.012633,0.982422,-0.335449,-0.150635,-0.456987,-0.528594,0.532390,-0.477820
27695,,9.858226,-0.206697,-1.154603,-0.004270,0.024126,0.016187,0.986816,-0.333008,-0.150635,-0.457025,-0.528541,0.532428,-0.477800
27696,,9.838723,-0.265234,-1.185713,-0.013129,0.022295,0.014272,0.984619,-0.330811,-0.150879,-0.457051,-0.528515,0.532463,-0.477765
27697,,9.854006,-0.296824,-1.176448,-0.002380,0.021489,0.015071,0.982422,-0.333008,-0.148438,-0.457081,-0.528475,0.532499,-0.477740
27698,,9.864134,-0.269585,-1.157247,0.004834,0.029269,0.011530,0.984619,-0.330811,-0.157471,-0.457084,-0.528481,0.532469,-0.477765
27699,,9.855093,-0.221249,-1.091489,0.003392,0.021758,0.015541,0.989258,-0.335205,-0.150635,-0.457103,-0.528449,0.532497,-0.477751
27700,,9.830367,-0.221113,-1.113316,0.001792,0.019063,0.015275,0.986816,-0.330811,-0.146240,-0.457078,-0.528462,0.532506,-0.477749
27701,,9.841968,-0.239616,-1.124448,0.002318,0.021394,0.012052,0.979980,-0.330811,-0.153076,-0.457099,-0.528445,0.532519,-0.477734
27702,,9.817289,-0.239185,-1.146063,0.000424,0.024029,0.013175,0.982422,-0.335449,-0.148438,-0.457096,-0.528449,0.532515,-0.477737
27703,,9.890108,-0.278245,-1.122533,0.000989,0.017714,0.015146,0.984619,-0.330811,-0.144043,-0.457110,-0.528422,0.532557,-0.477707
27704,,9.846757,-0.234653,-1.171887,0.001106,0.021543,0.014230,0.984619,-0.335205,-0.148438,-0.457096,-0.528430,0.532560,-0.477708
27705,,9.871881,-0.237687,-1.145765,0.003915,0.024084,0.012330,0.979980,-0.333252,-0.148438,-0.457117,-0.528411,0.532562,-0.477707
27706,,9.872118,-0.239038,-1.143440,0.001903,0.022888,0.014369,0.984375,-0.326172,-0.148682,-0.457104,-0.528418,0.532560,-0.477713
27707,,9.868107,-0.249576,-1.087658,-0.006683,0.020080,0.015801,0.984375,-0.328613,-0.155273,-0.457136,-0.528374,0.532607,-0.477678
27708,,9.851253,-0.253154,-1.142864,-0.008435,0.022202,0.011256,0.982178,-0.328613,-0.150879,-0.457157,-0.528367,0.532624,-0.477648
27709,,9.838010,-0.269729,-1.177767,-0.003327,0.020628,0.013275,0.982178,-0.328613,-0.148682,-0.457193,-0.528332,0.532660,-0.477611
27710,,9.863103,-0.272648,-1.151653,0.000284,0.024514,0.011513,0.984619,-0.330811,-0.155273,-0.457196,-0.528339,0.532651,-0.477611
27711,,9.848343,-0.243569,-1.156639,-0.001982,0.019982,0.012786,0.982178,-0.330811,-0.146240,-0.457227,-0.528311,0.532684,-0.477576
27712,,9.858438,-0.216217,-1.137760,-0.001864,0.023811,0.011873,0.982178,-0.330811,-0.148682,-0.457233,-0.528313,0.532682,-0.477570
27713,,9.831069,-0.270452,-1.135613,0.002309,0.021383,0.012078,0.984375,-0.328613,-0.153076,-0.457252,-0.528297,0.532695,-0.477555
27714,,9.858886,-0.218617,-1.133418,0.002309,0.021382,0.012079,0.982178,-0.328613,-0.148682,-0.457240,-0.528314,0.532689,-0.477553
27715,,9.836292,-0.185399,-1.104947,0.000148,0.025003,0.009842,0.982422,-0.333008,-0.150635,-0.457284,-0.528290,0.532695,-0.477533
27716,,9.830204,-0.228028,-1.099080,-0.004947,0.022255,0.010417,0.982178,-0.330811,-0.146240,-0.457297,-0.528292,0.532700,-0.477511
27717,,9.887957,-0.236647,-1.082335,-0.008856,0.023695,0.013575,0.982422,-0.333008,-0.155029,-0.457351,-0.528239,0.532741,-0.477473
27718,,9.846438,-0.238423,-1.161297,-0.007510,0.023049,0.013086,0.982178,-0.330811,-0.146240,-0.457366,-0.528227,0.532758,-0.477453
27719,,9.861596,-0.269752,-1.152048,-0.005203,0.018916,0.009656,0.984375,-0.328613,-0.150879,-0.457410,-0.528201,0.532794,-0.477399
27720,,9.860252,-0.225093,-1.120190,-0.006165,0.022403,0.012597,0.982178,-0.328613,-0.146484,-0.457422,-0.528195,0.532808,-0.477379
27721,,9.876281,-0.234171,-1.184892,-0.015819,0.019243,0.010516,0.982178,-0.328613,-0.150879,-0.457487,-0.528149,0.532863,-0.477307
27722,,9.837416,-0.271035,-1.170008,-0.006967,0.021055,0.012464,0.979980,-0.330811,-0.153076,-0.457497,-0.528145,0.532881,-0.477281
27723,,9.812823,-0.270389,-1.192051,0.005543,0.018091,0.010489,0.982422,-0.333008,-0.150635,-0.457509,-0.528143,0.532896,-0.477255
27724,,9.829862,-0.269245,-1.132968,0.014010,0.017061,0.009989,0.979980,-0.328613,-0.150879,-0.457460,-0.528203,0.532867,-0.477268
27725,,9.832922,-0.215600,-1.155027,0.016157,0.017760,0.009638,0.977783,-0.333252,-0.148438,-0.457444,-0.528229,0.532854,-0.477269
27726,,9.865830,-0.222497,-1.162575,0.011183,0.018844,0.009295,0.984619,-0.333008,-0.152832,-0.457408,-0.528280,0.532826,-0.477278
27727,,9.887327,-0.212319,-1.156929,0.007272,0.020286,0.012450,0.982178,-0.328613,-0.153076,-0.457417,-0.528270,0.532839,-0.477267
27728,,9.833527,-0.218912,-1.149240,-0.008032,0.020699,0.008963,0.984375,-0.328613,-0.150879,-0.457438,-0.528273,0.532852,-0.477229
27729,,9.866471,-0.225653,-1.156512,-0.011945,0.022141,0.012119,0.982422,-0.335449,-0.148438,-0.457500,-0.528221,0.532900,-0.477173
27730,,9.856826,-0.255278,-1.171173,-0.006973,0.021055,0.012468,0.986816,-0.333008,-0.150635,-0.457511,-0.528216,0.532918,-0.477147
27731,,9.878345,-0.244991,-1.165339,-0.004955,0.022247,0.010438,0.984619,-0.328613,-0.159668,-0.457559,-0.528182,0.532948,-0.477107
27732,,9.865280,-0.261432,-1.200067,0.002418,0.025193,0.011207,0.986816,-0.330811,-0.148682,-0.457559,-0.528192,0.532931,-0.477114
27733,,9.803544,-0.263990,-1.158614,0.009409,0.025298,0.009526,0.989014,-0.328369,-0.148682,-0.457583,-0.528186,0.532917,-0.477113
27734,,9.812095,-0.190906,-1.109566,0.007389,0.024105,0.011559,0.984375,-0.323975,-0.151123,-0.457566,-0.528209,0.532892,-0.477132
27735,,9.827204,-0.222218,-1.099979,-0.002940,0.023437,0.008410,0.984619,-0.330811,-0.148682,-0.457610,-0.528193,0.532897,-0.477102
27736,,9.856733,-0.216038,-1.127371,0.001071,0.021514,0.014295,0.986816,-0.330811,-0.153076,-0.457596,-0.528201,0.532900,-0.477103
27737,,9.856992,-0.217193,-1.124890,0.000262,0.028811,0.008976,0.982422,-0.335449,-0.150635,-0.457650,-0.528169,0.532895,-0.477092
27738,,9.832548,-0.216482,-1.146402,-0.000408,0.022652,0.013108,0.984375,-0.328613,-0.146484,-0.457646,-0.528174,0.532896,-0.477089
27739,,9.846025,-0.202210,-1.107282,-0.008712,0.018858,0.010513,0.982178,-0.330811,-0.148682,-0.457693,-0.528142,0.532938,-0.477033
27740,,9.854262,-0.207306,-1.138666,-0.006983,0.021051,0.012478,0.979980,-0.328613,-0.157471,-0.457703,-0.528138,0.532957,-0.477006
27741,,9.861252,-0.234720,-1.096114,-0.009934,0.019009,0.012687,0.989014,-0.330566,-0.146484,-0.457754,-0.528092,0.533014,-0.476945
27742,,9.846605,-0.205557,-1.101497,-0.011282,0.019654,0.013179,0.982422,-0.333008,-0.144043,-0.457771,-0.528079,0.533048,-0.476905
27743,,9.819015,-0.259688,-1.099874,-0.011283,0.019653,0.013181,0.986816,-0.328369,-0.146484,-0.457813,-0.528039,0.533094,-0.476858
27744,,9.837122,-0.236459,-1.114468,-0.005511,0.019907,0.013678,0.982178,-0.330811,-0.148682,-0.457814,-0.528037,0.533115,-0.476836
27745,,9.883280,-0.228255,-1.084722,-0.006313,0.018563,0.013537,0.989014,-0.328369,-0.146484,-0.457841,-0.528009,0.533154,-0.476797
27746,,9.852039,-0.201525,-1.147651,-0.015330,0.017269,0.017242,0.984375,-0.328613,-0.153076,-0.457852,-0.527981,0.533214,-0.476750
27747,,9.860305,-0.206960,-1.179129,-0.017480,0.020893,0.015005,0.982178,-0.328613,-0.155273,-0.457913,-0.527918,0.533278,-0.476689
27748,,9.890108,-0.268856,-1.162601,-0.009137,0.020346,0.012844,0.982422,-0.333008,-0.148438,-0.457927,-0.527909,0.533305,-0.476656
27749,,9.842783,-0.233837,-1.158563,-0.013183,0.022284,0.014316,0.979980,-0.330811,-0.150879,-0.457988,-0.527846,0.533364,-0.476601
27750,,9.826604,-0.305165,-1.169927,-0.011289,0.019648,0.013195,0.984375,-0.328613,-0.148682,-0.458005,-0.527833,0.533398,-0.476561
27751,,9.843180,-0.236247,-1.154698,-0.004969,0.017910,0.013061,0.984375,-0.328613,-0.150879,-0.458032,-0.527806,0.533439,-0.476519
27752,,9.835244,-0.233178,-1.119690,-0.006948,0.016709,0.007731,0.986816,-0.326172,-0.155273,-0.458042,-0.527825,0.533455,-0.476470
27753,,9.848609,-0.218688,-1.080850,-0.010869,0.018152,0.010884,0.984619,-0.330811,-0.153076,-0.458092,-0.527791,0.533504,-0.476406
27754,,9.840370,-0.225937,-1.170024,-0.012223,0.014476,0.013959,0.979980,-0.328613,-0.150879,-0.458095,-0.527786,0.533554,-0.476352
27755,,9.861823,-0.215648,-1.164789,-0.016898,0.014570,0.009609,0.989014,-0.330566,-0.150879,-0.458156,-0.527747,0.533625,-0.476257
27756,,9.860233,-0.248969,-1.213572,-0.018122,0.014720,0.011782,0.984619,-0.333008,-0.152832,-0.458181,-0.527734,0.533683,-0.476183
27757,,9.880180,-0.260910,-1.134412,-0.018248,0.015214,0.010103,0.987061,-0.335205,-0.148438,-0.458244,-0.527689,0.533756,-0.476089
27758,,9.827970,-0.234605,-1.077605,-0.011381,0.011487,0.009334,0.982178,-0.328613,-0.157471,-0.458248,-0.527706,0.533799,-0.476019
27759,,9.837932,-0.207062,-1.059679,-0.016906,0.010245,0.012197,0.982178,-0.330811,-0.150879,-0.458292,-0.527668,0.533889,-0.475917
27760,,9.851163,-0.192740,-1.021749,-0.025086,0.005968,0.011263,0.979980,-0.328613,-0.155273,-0.458313,-0.527661,0.533982,-0.475800
27761,,9.877387,-0.172965,-1.070779,-0.036505,0.009296,0.009366,0.982178,-0.330811,-0.153076,-0.458413,-0.527589,0.534113,-0.475637
27762,,9.854388,-0.217320,-1.124360,-0.046466,0.002833,0.013823,0.982178,-0.328613,-0.150879,-0.458476,-0.527533,0.534271,-0.475461
27763,,9.826465,-0.271084,-1.124878,-0.030326,-0.000598,0.012717,0.986572,-0.326172,-0.153076,-0.458522,-0.527493,0.534415,-0.475300
27764,,9.836289,-0.243537,-1.108244,-0.030582,-0.003929,0.011937,0.982178,-0.330811,-0.153076,-0.458529,-0.527495,0.534545,-0.475144
27765,,9.862401,-0.223792,-1.158349,-0.021432,-0.003135,0.009920,0.982178,-0.328613,-0.150879,-0.458550,-0.527490,0.534664,-0.474995
27766,,9.839459,-0.190316,-1.132746,-0.019290,-0.006765,0.012154,0.984619,-0.330811,-0.155273,-0.458520,-0.527525,0.534775,-0.474862
27767,,9.832794,-0.164734,-1.173885,-0.031388,-0.005273,0.011799,0.984375,-0.326172,-0.148682,-0.458557,-0.527496,0.534928,-0.474685
27768,,9.865464,-0.171568,-1.183611,-0.033964,-0.004481,0.014468,0.984619,-0.330811,-0.159668,-0.458565,-0.527485,0.535075,-0.474523
27769,,9.899662,-0.223989,-1.223279,-0.047413,-0.002345,0.014612,0.984619,-0.330811,-0.153076,-0.458645,-0.527407,0.535265,-0.474319
27770,,9.841976,-0.294763,-1.318941,-0.045140,-0.002151,0.015953,0.982178,-0.330811,-0.153076,-0.458686,-0.527360,0.535436,-0.474137
27771,,9.866550,-0.297527,-1.294935,-0.036906,0.002129,0.009531,0.984375,-0.328613,-0.153076,-0.458761,-0.527308,0.535579,-0.473961
27772,,9.863295,-0.284892,-1.314823,-0.026445,0.006595,0.011804,0.982178,-0.330811,-0.153076,-0.458786,-0.527295,0.535675,-0.473844
27773,,9.845394,-0.241958,-1.341490,-0.015139,0.008088,0.009432,0.982178,-0.330811,-0.157471,-0.458817,-0.527282,0.535749,-0.473744
27774,,9.814531,-0.204628,-1.281025,-0.007756,0.011016,0.010222,0.984375,-0.326172,-0.159912,-0.458809,-0.527305,0.535787,-0.473684
27775,,9.835988,-0.194420,-1.276002,-0.006830,0.011857,0.012051,0.984375,-0.323975,-0.157715,-0.458830,-0.527289,0.535848,-0.473613
27776,,9.824602,-0.246466,-1.217936,-0.008971,0.015490,0.009825,0.982178,-0.328613,-0.157471,-0.458837,-0.527300,0.535877,-0.473561
27777,,9.829650,-0.238032,-1.270025,-0.005224,0.014539,0.012348,0.984619,-0.330811,-0.157471,-0.458856,-0.527285,0.535923,-0.473507
27778,,9.859429,-0.222315,-1.173795,0.006084,0.016029,0.009979,0.986816,-0.328369,-0.161865,-0.458825,-0.527329,0.535915,-0.473497
27779,,9.885815,-0.202883,-1.222001,0.004722,0.012346,0.013046,0.979980,-0.328613,-0.157471,-0.458815,-0.527334,0.535951,-0.473460
27780,,9.851739,-0.152725,-1.181160,-0.002815,0.018562,0.012794,0.975342,-0.326416,-0.159668,-0.458807,-0.527344,0.535966,-0.473439
27781,,9.840525,-0.136803,-1.166229,-0.016946,0.018864,0.014470,0.984375,-0.323975,-0.153320,-0.458868,-0.527280,0.536043,-0.473364
27782,,9.824105,-0.208024,-1.178314,-0.022603,0.018119,0.015656,0.982178,-0.326416,-0.159912,-0.458905,-0.527238,0.536113,-0.473296
27783,,9.842136,-0.262491,-1.273391,-0.011975,0.017764,0.014824,0.986816,-0.330811,-0.157471,-0.458941,-0.527197,0.536170,-0.473241
27784,,9.830673,-0.314838,-1.214855,0.001489,0.019946,0.012115,0.986816,-0.330811,-0.157471,-0.458927,-0.527216,0.536170,-0.473234
27785,,9.817989,-0.262837,-1.293857,0.012663,0.017604,0.010641,0.989258,-0.333008,-0.155273,-0.458912,-0.527237,0.536165,-0.473232
27786,,9.862640,-0.209548,-1.233463,0.020184,0.024354,0.010551,0.984619,-0.333008,-0.161865,-0.458864,-0.527292,0.536106,-0.473283
27787,,9.869612,-0.169267,-1.234382,0.002411,0.020786,0.013947,0.984619,-0.330811,-0.159668,-0.458880,-0.527269,0.536131,-0.473266
27788,,9.859950,-0.198833,-1.249156,-0.004699,0.025518,0.011371,0.984619,-0.328613,-0.164063,-0.458899,-0.527262,0.536131,-0.473255
27789,,9.843601,-0.269960,-1.260438,-0.002972,0.027697,0.013354,0.984619,-0.328613,-0.157471,-0.458953,-0.527209,0.536155,-0.473235
27790,,9.814329,-0.278360,-1.228510,0.007157,0.025013,0.008375,0.984619,-0.330811,-0.159668,-0.458946,-0.527239,0.536120,-0.473247
27791,,9.816279,-0.247269,-1.175757,0.015872,0.022958,0.011258,0.984619,-0.328613,-0.159668,-0.458937,-0.527252,0.536098,-0.473267
27792,,9.777424,-0.215976,-1.204699,0.020982,0.025683,0.010726,0.982178,-0.330811,-0.159668,-0.458890,-0.527305,0.536035,-0.473324
27793,,9.846403,-0.242491,-1.200139,0.017903,0.024149,0.009239,0.989014,-0.328369,-0.155273,-0.458886,-0.527322,0.536004,-0.473344
27794,,9.873081,-0.223087,-1.247515,0.016960,0.018982,0.009981,0.984375,-0.326172,-0.166504,-0.458834,-0.527384,0.535964,-0.473371
27795,,9.884779,-0.241387,-1.258213,0.018040,0.027974,0.008356,0.984619,-0.330811,-0.157471,-0.458841,-0.527399,0.535918,-0.473401
27796,,9.853973,-0.204141,-1.196039,0.022892,0.027371,0.007035,0.982178,-0.330811,-0.155273,-0.458802,-0.527462,0.535837,-0.473459
27797,,9.831412,-0.170830,-1.167309,0.018702,0.025484,0.009401,0.984619,-0.330811,-0.155273,-0.458795,-0.527481,0.535797,-0.473490
27798,,9.818640,-0.186891,-1.202123,0.012003,0.024406,0.007061,0.984375,-0.328613,-0.155273,-0.458778,-0.527526,0.535748,-0.473511
27799,,9.823587,-0.246722,-1.209403,0.015999,0.026776,0.010390,0.982178,-0.326416,-0.155273,-0.458776,-0.527537,0.535711,-0.473544
27800,,9.869676,-0.238717,-1.178644,0.021826,0.022699,0.006107,0.979980,-0.330811,-0.157471,-0.458730,-0.527611,0.535640,-0.473585
27801,,9.888134,-0.215316,-1.192711,0.021256,0.020359,0.009322,0.984619,-0.333008,-0.159668,-0.458703,-0.527649,0.535605,-0.473609
27802,,9.873845,-0.185914,-1.197586,0.024234,0.026713,0.006566,0.984619,-0.328613,-0.157471,-0.458660,-0.527718,0.535521,-0.473668
27803,,9.831436,-0.209483,-1.203146,0.021744,0.022685,0.013486,0.984375,-0.326172,-0.148682,-0.458632,-0.527736,0.535496,-0.473704
27804,,9.817147,-0.180544,-1.208086,0.020276,0.023830,0.012297,0.984619,-0.333008,-0.155029,-0.458578,-0.527788,0.535443,-0.473758
27805,,9.822072,-0.240775,-1.215260,0.020415,0.027654,0.011410,0.984375,-0.328613,-0.153076,-0.458560,-0.527808,0.535390,-0.473813
27806,,9.845248,-0.276485,-1.238646,0.028513,0.023763,0.008480,0.984619,-0.328613,-0.157471,-0.458493,-0.527890,0.535307,-0.473880
27807,,9.895037,-0.213745,-1.231324,0.038475,0.025874,0.006648,0.984619,-0.330811,-0.153076,-0.458439,-0.527964,0.535208,-0.473962
27808,,9.862552,-0.209045,-1.219678,0.029800,0.027428,0.012798,0.979980,-0.330811,-0.153076,-0.458369,-0.528028,0.535126,-0.474052
27809,,9.858252,-0.151639,-1.207155,0.021095,0.029486,0.009890,0.984619,-0.330811,-0.157471,-0.458362,-0.528044,0.535069,-0.474105
27810,,9.854828,-0.207640,-1.180567,0.016124,0.030590,0.009522,0.982178,-0.330811,-0.155273,-0.458344,-0.528078,0.535003,-0.474159
27811,,9.823919,-0.248368,-1.198684,0.013281,0.028063,0.011392,0.982178,-0.326416,-0.155273,-0.458355,-0.528071,0.534978,-0.474184
27812,,9.842548,-0.225274,-1.211964,0.024046,0.031508,0.009721,0.979980,-0.326416,-0.157471,-0.458318,-0.528120,0.534892,-0.474262
27813,,9.781106,-0.159568,-1.214730,0.025509,0.030359,0.010922,0.984619,-0.330811,-0.155273,-0.458303,-0.528141,0.534827,-0.474327
27814,,9.786060,-0.219716,-1.221364,0.021086,0.029477,0.009911,0.986816,-0.328369,-0.157471,-0.458268,-0.528187,0.534753,-0.474392
27815,,9.829082,-0.198849,-1.210293,0.022115,0.029819,0.013435,0.984619,-0.333008,-0.159668,-0.458254,-0.528194,0.534706,-0.474452
27816,,9.832415,-0.213609,-1.187134,0.020506,0.027142,0.013133,0.984375,-0.328613,-0.150879,-0.458207,-0.528236,0.534647,-0.474517
27817,,9.861484,-0.197914,-1.089578,0.019702,0.025803,0.012984,0.984619,-0.328613,-0.157471,-0.458190,-0.528246,0.534614,-0.474558
27818,,9.857164,-0.140540,-1.077337,0.012032,0.028209,0.013578,0.982178,-0.330811,-0.159668,-0.458167,-0.528265,0.534574,-0.474604
27819,,9.888856,-0.180633,-1.133543,-0.002098,0.028553,0.015167,0.986816,-0.333008,-0.155029,-0.458215,-0.528208,0.534599,-0.474593
27820,,9.813156,-0.162743,-1.224427,0.003415,0.025455,0.014913,0.979980,-0.333252,-0.157227,-0.458205,-0.528211,0.534589,-0.474612
27821,,9.769359,-0.218974,-1.280329,0.001260,0.024767,0.015247,0.979980,-0.333252,-0.157227,-0.458233,-0.528169,0.534615,-0.474602
27822,,9.890821,-0.195497,-1.249933,0.011449,0.025872,0.016808,0.984375,-0.326172,-0.159912,-0.458197,-0.528184,0.534590,-0.474648
27823,,9.966653,-0.181264,-1.247697,0.001882,0.030919,0.018521,0.979980,-0.326416,-0.155273,-0.458234,-0.528121,0.534609,-0.474660
27824,,9.854679,-0.247582,-1.211819,-0.005060,0.026525,0.015354,0.986816,-0.328369,-0.153076,-0.458248,-0.528100,0.534618,-0.474660
27825,,9.815229,-0.284444,-1.196967,0.000050,0.029234,0.014851,0.984619,-0.330811,-0.157471,-0.458284,-0.528058,0.534623,-0.474666
27826,,9.851294,-0.305203,-1.182564,0.009760,0.028004,0.012257,0.979980,-0.328613,-0.155273,-0.458269,-0.528076,0.534586,-0.474703
27827,,9.878286,-0.208143,-1.149110,0.015417,0.028724,0.011117,0.982178,-0.328613,-0.150879,-0.458279,-0.528073,0.534554,-0.474733
27828,,9.838314,-0.131211,-1.148341,-0.005724,0.029007,0.014314,0.977783,-0.333252,-0.152832,-0.458303,-0.528047,0.534557,-0.474735
27829,,9.845882,-0.169171,-1.228812,-0.022558,0.030663,0.016852,0.986816,-0.326172,-0.159912,-0.458399,-0.527940,0.534622,-0.474688
27830,,9.867906,-0.237664,-1.301555,-0.023655,0.034636,0.018137,0.986816,-0.330811,-0.150879,-0.458477,-0.527850,0.534664,-0.474667
27831,,9.853096,-0.354754,-1.341614,-0.015039,0.037376,0.016831,0.979980,-0.328613,-0.148682,-0.458571,-0.527747,0.534693,-0.474656
27832,,9.832223,-0.367319,-1.341868,0.028306,0.041455,0.011422,0.982178,-0.326416,-0.157471,-0.458546,-0.527778,0.534578,-0.474776
27833,,9.832743,-0.368822,-1.337634,0.048094,0.041811,0.008737,0.982422,-0.333008,-0.157471,-0.458503,-0.527832,0.534425,-0.474930
27834,,9.849753,-0.222078,-1.239525,0.070729,0.044678,0.004211,0.982422,-0.333008,-0.155029,-0.458391,-0.527972,0.534183,-0.475155
27835,,9.861366,-0.162666,-1.167801,0.059872,0.045568,0.010662,0.982422,-0.333008,-0.150635,-0.458333,-0.528025,0.534013,-0.475342
27836,,9.871735,-0.135873,-1.146191,0.038509,0.046853,0.010460,0.989014,-0.330566,-0.153076,-0.458298,-0.528069,0.533859,-0.475501
27837,,9.848381,-0.248999,-1.151801,0.028643,0.044271,0.013932,0.986816,-0.328369,-0.153076,-0.458302,-0.528055,0.533763,-0.475619
27838,,9.870212,-0.239510,-1.143116,0.034193,0.045477,0.011128,0.979980,-0.328613,-0.159668,-0.458272,-0.528091,0.533624,-0.475764
27839,,9.838995,-0.202093,-1.079828,0.039848,0.046187,0.010012,0.989014,-0.330566,-0.150879,-0.458268,-0.528104,0.533494,-0.475900
27840,,9.870604,-0.164026,-1.054453,0.047909,0.037957,0.009719,0.982178,-0.328613,-0.150879,-0.458186,-0.528192,0.533336,-0.476058
27841,,9.828290,-0.187763,-1.059093,0.042350,0.036747,0.012537,0.989014,-0.330566,-0.148682,-0.458136,-0.528235,0.533218,-0.476191
27842,,9.802821,-0.141464,-1.050444,0.033519,0.035002,0.010458,0.984375,-0.328613,-0.153076,-0.458082,-0.528295,0.533103,-0.476305
27843,,9.854588,-0.125316,-1.071783,0.026923,0.032969,0.018805,0.984619,-0.330811,-0.153076,-0.458048,-0.528294,0.533047,-0.476401
27844,,9.797923,-0.118914,-1.084764,0.013683,0.030356,0.015671,0.986816,-0.326172,-0.155273,-0.458021,-0.528306,0.533004,-0.476462
27845,,9.836609,-0.153155,-1.049578,-0.001948,0.027573,0.018547,0.984375,-0.326172,-0.148682,-0.458055,-0.528248,0.533035,-0.476459
27846,,9.835797,-0.187651,-1.097080,-0.019837,0.024603,0.020055,0.984375,-0.326172,-0.150879,-0.458091,-0.528186,0.533096,-0.476426
27847,,9.902825,-0.169299,-1.061542,-0.028306,0.025692,0.020445,0.986816,-0.330811,-0.153076,-0.458176,-0.528076,0.533187,-0.476362
27848,,9.848832,-0.175739,-1.054917,-0.027760,0.023702,0.019813,0.984375,-0.328613,-0.153076,-0.458231,-0.527998,0.533269,-0.476305
27849,,9.815102,-0.203880,-1.094526,-0.046251,0.018413,0.024531,0.986816,-0.330811,-0.150879,-0.458343,-0.527845,0.533441,-0.476175
27850,,9.837647,-0.161896,-1.038472,-0.043756,0.018091,0.020210,0.984375,-0.328613,-0.150879,-0.458424,-0.527743,0.533574,-0.476060
27851,,9.895363,-0.136837,-1.115085,-0.054332,0.013695,0.025183,0.986572,-0.326172,-0.146484,-0.458538,-0.527584,0.533773,-0.475903
27852,,9.865307,-0.145548,-1.085098,-0.059452,0.010995,0.025670,0.982422,-0.333008,-0.150635,-0.458629,-0.527448,0.533975,-0.475741
27853,,9.903312,-0.177504,-1.196188,-0.054942,0.011361,0.028417,0.984375,-0.328613,-0.150879,-0.458727,-0.527289,0.534184,-0.475588
27854,,9.836630,-0.199579,-1.228254,-0.058200,0.014649,0.030030,0.984619,-0.335205,-0.152832,-0.458814,-0.527135,0.534385,-0.475448
27855,,9.826889,-0.230038,-1.244025,-0.052093,0.013862,0.026597,0.989014,-0.330566,-0.157471,-0.458921,-0.526974,0.534585,-0.475298
27856,,9.837470,-0.282030,-1.305566,-0.047326,0.017545,0.030147,0.982422,-0.333008,-0.150635,-0.458986,-0.526838,0.534754,-0.475196
27857,,9.865964,-0.345654,-1.288811,-0.027323,0.016865,0.030899,0.982422,-0.333008,-0.148438,-0.459028,-0.526714,0.534902,-0.475127
27858,,9.855687,-0.298326,-1.223854,-0.015232,0.024422,0.024581,0.979980,-0.328613,-0.153076,-0.459040,-0.526650,0.534964,-0.475116
27859,,9.802695,-0.272868,-1.167305,-0.014486,0.021439,0.027313,0.982178,-0.326416,-0.150879,-0.459064,-0.526558,0.535056,-0.475091
27860,,9.834681,-0.314112,-1.224031,-0.023218,0.019217,0.026902,0.984619,-0.330811,-0.161865,-0.459078,-0.526482,0.535155,-0.475050
27861,,9.901633,-0.296824,-1.188653,-0.015941,0.022586,0.026117,0.982422,-0.335449,-0.155029,-0.459117,-0.526384,0.535250,-0.475015
27862,,9.819341,-0.242584,-1.197350,-0.015785,0.026401,0.025244,0.984375,-0.328613,-0.153076,-0.459135,-0.526313,0.535311,-0.475008
27863,,9.795568,-0.242479,-1.219644,-0.019655,0.023554,0.023551,0.982178,-0.328613,-0.148682,-0.459191,-0.526210,0.535405,-0.474961
27864,,9.798414,-0.257972,-1.197062,-0.020812,0.023208,0.027410,0.984619,-0.330811,-0.150879,-0.459208,-0.526129,0.535491,-0.474938
27865,,9.865416,-0.240525,-1.161214,-0.020403,0.026535,0.020834,0.986816,-0.330811,-0.153076,-0.459270,-0.526036,0.535560,-0.474902
27866,,9.895912,-0.235729,-1.187547,-0.019563,0.023050,0.025251,0.982422,-0.333008,-0.157471,-0.459289,-0.525963,0.535638,-0.474877
27867,,9.855973,-0.272947,-1.173604,-0.016796,0.026057,0.021732,0.986816,-0.330811,-0.153076,-0.459349,-0.525866,0.535715,-0.474840
27868,,9.858794,-0.288270,-1.150851,-0.010386,0.023773,0.023348,0.984375,-0.328613,-0.155273,-0.459350,-0.525818,0.535764,-0.474836
27869,,9.885124,-0.224796,-1.167675,-0.005425,0.022642,0.023759,0.984619,-0.333008,-0.148438,-0.459361,-0.525756,0.535821,-0.474830
27870,,9.897819,-0.212023,-1.127950,-0.011195,0.022439,0.023188,0.982178,-0.326416,-0.155273,-0.459361,-0.525710,0.535874,-0.474821
27871,,9.875610,-0.257415,-1.180629,-0.014968,0.019098,0.023174,0.986816,-0.333008,-0.155029,-0.459386,-0.525639,0.535957,-0.474783
27872,,9.840356,-0.239907,-1.190615,-0.011101,0.021936,0.024882,0.984619,-0.330811,-0.148682,-0.459381,-0.525589,0.536016,-0.474776
27873,,9.819162,-0.253018,-1.192915,-0.009846,0.021781,0.022717,0.979736,-0.324219,-0.157715,-0.459401,-0.525523,0.536080,-0.474757
27874,,9.809445,-0.283339,-1.207992,-0.002822,0.021825,0.021128,0.979980,-0.333252,-0.152832,-0.459382,-0.525503,0.536110,-0.474764
27875,,9.790776,-0.309767,-1.189995,0.003137,0.021020,0.025082,0.979980,-0.333252,-0.150635,-0.459366,-0.525459,0.536157,-0.474776
27876,,9.770532,-0.290503,-1.142147,0.006101,0.019227,0.018412,0.979980,-0.328613,-0.155273,-0.459323,-0.525473,0.536164,-0.474794
27877,,9.857839,-0.294503,-1.152526,-0.001733,0.017853,0.019837,0.982178,-0.330811,-0.155273,-0.459322,-0.525439,0.536214,-0.474776
27878,,9.836564,-0.307143,-1.155419,-0.013530,0.014145,0.017865,0.984619,-0.330811,-0.153076,-0.459318,-0.525421,0.536278,-0.474726
27879,,9.834184,-0.295465,-1.174188,-0.004084,0.018176,0.016781,0.982178,-0.330811,-0.150879,-0.459330,-0.525391,0.536325,-0.474695
27880,,9.846752,-0.282100,-1.135210,-0.000999,0.011065,0.016041,0.986816,-0.330811,-0.150879,-0.459290,-0.525414,0.536361,-0.474667
27881,,9.830370,-0.239778,-1.161899,-0.002899,0.013704,0.017173,0.984619,-0.330811,-0.150879,-0.459280,-0.525403,0.536408,-0.474637
27882,,9.851898,-0.230540,-1.156087,0.004127,0.013744,0.015586,0.982422,-0.333008,-0.152832,-0.459234,-0.525433,0.536426,-0.474628
27883,,9.829053,-0.197526,-1.129499,-0.003781,0.008057,0.019564,0.977783,-0.335449,-0.155029,-0.459208,-0.525422,0.536498,-0.474583
27884,,9.897363,-0.225690,-1.124808,-0.002260,0.011217,0.018214,0.984375,-0.326172,-0.155273,-0.459167,-0.525437,0.536543,-0.474557
27885,,9.853647,-0.281352,-1.182986,0.000351,0.010407,0.015566,0.984375,-0.328613,-0.155273,-0.459151,-0.525436,0.536595,-0.474513
27886,,9.820865,-0.276538,-1.173520,0.006474,0.013412,0.018655,0.977539,-0.328613,-0.157471,-0.459091,-0.525464,0.536615,-0.474517
27887,,9.813454,-0.319847,-1.169393,0.009463,0.006801,0.016226,0.984619,-0.333008,-0.155029,-0.459039,-0.525494,0.536655,-0.474490
27888,,9.842402,-0.269437,-1.167158,0.010719,0.010443,0.020590,0.984619,-0.330811,-0.159668,-0.458956,-0.525533,0.536677,-0.474502
27889,,9.827573,-0.272987,-1.224023,0.007470,0.009942,0.015671,0.979980,-0.328613,-0.159668,-0.458921,-0.525548,0.536716,-0.474474
27890,,9.840089,-0.259629,-1.185420,0.002510,0.011081,0.015258,0.979980,-0.328613,-0.155273,-0.458874,-0.525582,0.536742,-0.474454
27891,,9.877130,-0.245269,-1.266340,-0.011638,0.011513,0.016741,0.989258,-0.333008,-0.155273,-0.458890,-0.525549,0.536824,-0.474382
27892,,9.897714,-0.268137,-1.310836,-0.008047,0.015846,0.013392,0.977783,-0.331055,-0.159668,-0.458888,-0.525552,0.536859,-0.474342
27893,,9.838511,-0.328443,-1.282094,-0.004441,0.015361,0.014290,0.982422,-0.333008,-0.152832,-0.458902,-0.525531,0.536910,-0.474293
27894,,9.809209,-0.304156,-1.201623,0.003394,0.016722,0.012876,0.986816,-0.330811,-0.153076,-0.458873,-0.525559,0.536915,-0.474284
27895,,9.828374,-0.281356,-1.215673,0.012038,0.019412,0.011633,0.980225,-0.335449,-0.155029,-0.458853,-0.525582,0.536900,-0.474295
27896,,9.862386,-0.256984,-1.171830,0.006999,0.016237,0.013775,0.989258,-0.333008,-0.157471,-0.458810,-0.525618,0.536900,-0.474297
27897,,9.808274,-0.262425,-1.166241,0.006987,0.021053,0.009532,0.984619,-0.335205,-0.155029,-0.458820,-0.525622,0.536898,-0.474285
27898,,9.848874,-0.228716,-1.175860,0.008895,0.013594,0.012648,0.980225,-0.335449,-0.155029,-0.458769,-0.525671,0.536897,-0.474282
27899,,9.837578,-0.212688,-1.161572,-0.002830,0.018019,0.014632,0.984619,-0.333008,-0.150635,-0.458784,-0.525645,0.536939,-0.474247
27900,,9.851597,-0.244807,-1.152368,0.000512,0.014219,0.014712,0.984619,-0.328613,-0.157471,-0.458751,-0.525668,0.536961,-0.474229
27901,,9.860769,-0.250408,-1.184000,-0.000842,0.014875,0.015193,0.982422,-0.337646,-0.155029,-0.458745,-0.525663,0.536997,-0.474200
27902,,9.869963,-0.255942,-1.215539,0.001228,0.016047,0.013196,0.979980,-0.330811,-0.159668,-0.458718,-0.525687,0.537009,-0.474185
27903,,9.837268,-0.250628,-1.205575,-0.005628,0.019833,0.013908,0.982422,-0.333008,-0.157471,-0.458751,-0.525650,0.537056,-0.474142
27904,,9.869382,-0.290905,-1.262484,0.008083,0.012259,0.012489,0.987061,-0.335205,-0.157227,-0.458698,-0.525701,0.537059,-0.474133
27905,,9.881899,-0.277635,-1.223372,0.014557,0.018067,0.018101,0.987061,-0.337402,-0.155029,-0.458661,-0.525706,0.537069,-0.474152
27906,,9.859193,-0.244458,-1.196044,0.007166,0.020043,0.012924,0.977539,-0.328613,-0.155273,-0.458630,-0.525735,0.537057,-0.474163
27907,,9.851334,-0.238281,-1.305619,0.006093,0.015402,0.011934,0.982422,-0.333008,-0.155029,-0.458618,-0.525748,0.537073,-0.474142
27908,,9.828158,-0.285925,-1.214144,0.002927,0.023016,0.010988,0.979980,-0.333252,-0.157227,-0.458612,-0.525766,0.537060,-0.474144
27909,,9.828382,-0.287196,-1.212025,0.000134,0.020016,0.014504,0.982422,-0.335449,-0.150635,-0.458624,-0.525744,0.537089,-0.474123
27910,,9.830945,-0.301783,-1.189705,0.004912,0.019871,0.011551,0.984619,-0.328613,-0.159668,-0.458602,-0.525772,0.537079,-0.474124
27911,,9.854943,-0.305398,-1.162776,0.006985,0.021041,0.009556,0.989258,-0.333008,-0.159668,-0.458607,-0.525783,0.537071,-0.474117
27912,,9.829918,-0.258212,-1.155604,0.005542,0.022199,0.008347,0.977783,-0.335449,-0.155029,-0.458598,-0.525815,0.537046,-0.474118
27913,,9.851570,-0.248324,-1.148991,0.000409,0.019532,0.008791,0.982178,-0.330811,-0.155273,-0.458624,-0.525809,0.537063,-0.474081
27914,,9.882305,-0.242684,-1.175680,-0.005990,0.017022,0.011402,0.979980,-0.333252,-0.155029,-0.458623,-0.525819,0.537086,-0.474045
27915,,9.813516,-0.249223,-1.228409,-0.010579,0.017185,0.006948,0.979980,-0.333252,-0.157227,-0.458671,-0.525803,0.537123,-0.473973
27916,,9.858063,-0.273996,-1.247440,-0.008874,0.019338,0.008984,0.979980,-0.333252,-0.155029,-0.458690,-0.525808,0.537140,-0.473929
27917,,9.892650,-0.327125,-1.283546,0.002569,0.020198,0.008493,0.982422,-0.337646,-0.152832,-0.458712,-0.525807,0.537148,-0.473901
27918,,9.846221,-0.290552,-1.281096,0.013115,0.020231,0.006141,0.977783,-0.333252,-0.155029,-0.458682,-0.525868,0.537104,-0.473912
27919,,9.835020,-0.274061,-1.266231,0.022747,0.023231,0.008473,0.982178,-0.330811,-0.159668,-0.458656,-0.525906,0.537056,-0.473949
27920,,9.822350,-0.211817,-1.221325,0.005363,0.023195,0.004983,0.984619,-0.330811,-0.157471,-0.458658,-0.525945,0.537021,-0.473944
27921,,9.861607,-0.291346,-1.216296,0.004096,0.023351,0.007152,0.977783,-0.331055,-0.153076,-0.458687,-0.525946,0.537013,-0.473924
27922,,9.829007,-0.285297,-1.205669,0.002831,0.028322,0.005077,0.984619,-0.333008,-0.155029,-0.458709,-0.525966,0.536972,-0.473927
27923,,9.841571,-0.271039,-1.165369,0.005711,0.026003,0.007503,0.982422,-0.335449,-0.152832,-0.458734,-0.525967,0.536950,-0.473926
27924,,9.818130,-0.269197,-1.187865,0.007522,0.023860,0.004687,0.984619,-0.330811,-0.155273,-0.458733,-0.526010,0.536907,-0.473928
27925,,9.827602,-0.274008,-1.218436,0.014094,0.025363,0.005468,0.986816,-0.333008,-0.157471,-0.458740,-0.526037,0.536862,-0.473943
27926,,9.854722,-0.209214,-1.234952,0.010314,0.022041,0.005426,0.982178,-0.330811,-0.157471,-0.458724,-0.526089,0.536819,-0.473950
27927,,9.857267,-0.222984,-1.212270,0.010950,0.024368,0.002223,0.984619,-0.333008,-0.155029,-0.458748,-0.526116,0.536779,-0.473941
27928,,9.859806,-0.236863,-1.189512,0.009852,0.023525,0.007770,0.984619,-0.330811,-0.159668,-0.458732,-0.526157,0.536740,-0.473955
27929,,9.870033,-0.209423,-1.169812,0.003456,0.025832,0.006125,0.982178,-0.328613,-0.159668,-0.458771,-0.526153,0.536725,-0.473939
27930,,9.838926,-0.249270,-1.189244,0.001547,0.023663,0.011498,0.987061,-0.335205,-0.155029,-0.458769,-0.526165,0.536715,-0.473940
27931,,9.869870,-0.243428,-1.215185,0.005994,0.025513,0.001797,0.979980,-0.333252,-0.155029,-0.458811,-0.526179,0.536684,-0.473920
27932,,9.858690,-0.226594,-1.199967,0.006593,0.026823,0.009384,0.982422,-0.333008,-0.161865,-0.458808,-0.526200,0.536648,-0.473938
27933,,9.847493,-0.210025,-1.184801,0.004891,0.024670,0.007346,0.984619,-0.333008,-0.159668,-0.458842,-0.526192,0.536644,-0.473919
27934,,9.831835,-0.166962,-1.210478,-0.001251,0.025478,0.010766,0.979980,-0.330811,-0.155273,-0.458854,-0.526195,0.536634,-0.473916
27935,,9.847380,-0.244298,-1.230116,-0.002144,0.024652,0.008903,0.984375,-0.326172,-0.155273,-0.458900,-0.526171,0.536645,-0.473885
27936,,9.831747,-0.201283,-1.255847,-0.006933,0.024801,0.011846,0.982422,-0.335205,-0.163818,-0.458922,-0.526159,0.536653,-0.473868
27937,,9.836426,-0.228999,-1.212767,-0.000541,0.022491,0.013502,0.979980,-0.333252,-0.152832,-0.458948,-0.526131,0.536680,-0.473844
27938,,9.827412,-0.225951,-1.177278,-0.006756,0.028611,0.010988,0.982422,-0.335449,-0.152832,-0.458982,-0.526113,0.536676,-0.473835
27939,,9.872112,-0.251270,-1.195215,-0.003336,0.024307,0.012768,0.982422,-0.333008,-0.148438,-0.459016,-0.526079,0.536697,-0.473816
27940,,9.872379,-0.252552,-1.192737,0.006752,0.025813,0.012789,0.982422,-0.335205,-0.159424,-0.459002,-0.526094,0.536673,-0.473840
27941,,9.841895,-0.260456,-1.161965,0.009542,0.023993,0.013531,0.986816,-0.328369,-0.150879,-0.459001,-0.526088,0.536667,-0.473855
27942,,9.873500,-0.222759,-1.137648,-0.000711,0.023487,0.010131,0.984619,-0.328613,-0.157471,-0.459007,-0.526099,0.536658,-0.473846
27943,,9.873736,-0.223693,-1.135416,-0.010801,0.021982,0.010110,0.979980,-0.333252,-0.155029,-0.459055,-0.526072,0.536685,-0.473800
27944,,9.847616,-0.241277,-1.229068,-0.019920,0.020801,0.013645,0.977783,-0.331055,-0.159668,-0.459096,-0.526035,0.536738,-0.473741
27945,,9.807731,-0.244717,-1.165707,-0.021823,0.023444,0.014775,0.987061,-0.337402,-0.157227,-0.459178,-0.525950,0.536817,-0.473666
27946,,9.815163,-0.236779,-1.216932,-0.016404,0.020806,0.012879,0.979980,-0.333252,-0.155029,-0.459212,-0.525923,0.536859,-0.473615
27947,,9.867037,-0.252879,-1.288731,-0.008094,0.020659,0.009172,0.986816,-0.330811,-0.157471,-0.459262,-0.525892,0.536897,-0.473559
27948,,9.836474,-0.260484,-1.258490,0.003592,0.019999,0.013796,0.975586,-0.333252,-0.150635,-0.459239,-0.525910,0.536896,-0.473561
27949,,9.837811,-0.197039,-1.155928,0.007030,0.020505,0.011336,0.986816,-0.333008,-0.155029,-0.459238,-0.525916,0.536895,-0.473557
27950,,9.839035,-0.276169,-1.234182,0.001813,0.018350,0.010062,0.986572,-0.326172,-0.153076,-0.459224,-0.525944,0.536893,-0.473542
27951,,9.825642,-0.246469,-1.239939,0.006401,0.022989,0.010303,0.984619,-0.335205,-0.152832,-0.459229,-0.525953,0.536877,-0.473545
27952,,9.853661,-0.276706,-1.171817,0.000718,0.022318,0.011371,0.982178,-0.326416,-0.155273,-0.459225,-0.525966,0.536872,-0.473541
27953,,9.839759,-0.279424,-1.227655,-0.007756,0.023467,0.011697,0.984619,-0.333008,-0.157471,-0.459267,-0.525934,0.536896,-0.473508
27954,,9.830598,-0.276178,-1.192526,0.004703,0.020838,0.008262,0.982422,-0.333008,-0.155029,-0.459257,-0.525968,0.536877,-0.473503
27955,,9.881007,-0.246894,-1.234193,0.008720,0.022648,0.013399,0.979980,-0.328613,-0.157471,-0.459256,-0.525963,0.536877,-0.473509
27956,,9.868185,-0.185076,-1.189344,0.000976,0.025623,0.012211,0.984619,-0.335205,-0.159424,-0.459258,-0.525966,0.536865,-0.473516
27957,,9.846522,-0.229277,-1.242004,-0.009923,0.022802,0.011995,0.982422,-0.333008,-0.155029,-0.459313,-0.525919,0.536909,-0.473465
27958,,9.848865,-0.243737,-1.219259,-0.009584,0.025608,0.014522,0.982178,-0.326416,-0.157471,-0.459338,-0.525892,0.536929,-0.473448
27959,,9.858576,-0.249247,-1.249769,-0.010394,0.024283,0.014344,0.979980,-0.328613,-0.157471,-0.459386,-0.525842,0.536969,-0.473412
27960,,9.827960,-0.256944,-1.219267,-0.002000,0.023630,0.012338,0.984619,-0.330811,-0.155273,-0.459391,-0.525843,0.536969,-0.473406
27961,,9.826622,-0.212520,-1.187096,0.006472,0.022476,0.012022,0.984375,-0.326172,-0.159912,-0.459396,-0.525842,0.536967,-0.473405
27962,,9.801349,-0.198027,-1.230302,0.003290,0.025278,0.015317,0.979980,-0.330811,-0.155273,-0.459384,-0.525843,0.536959,-0.473424
27963,,9.836605,-0.219669,-1.215247,0.002480,0.023953,0.015138,0.986816,-0.330811,-0.157471,-0.459397,-0.525820,0.536972,-0.473421
27964,,9.849979,-0.284381,-1.255197,0.000577,0.026596,0.016269,0.989258,-0.335205,-0.161621,-0.459394,-0.525810,0.536970,-0.473439
27965,,9.872118,-0.242954,-1.197625,0.013115,0.023458,0.014538,0.984863,-0.337402,-0.159424,-0.459384,-0.525808,0.536964,-0.473457
27966,,9.860869,-0.227103,-1.182583,0.009856,0.026762,0.016142,0.989258,-0.333008,-0.161865,-0.459357,-0.525819,0.536940,-0.473500
27967,,9.861572,-0.196294,-1.129643,0.000497,0.027096,0.014583,0.984619,-0.333008,-0.155029,-0.459394,-0.525773,0.536962,-0.473488
27968,,9.837968,-0.227732,-1.202667,-0.004416,0.022944,0.020059,0.984619,-0.335205,-0.157227,-0.459385,-0.525749,0.536990,-0.473492
27969,,9.826295,-0.244455,-1.238042,-0.001519,0.025429,0.018262,0.986816,-0.333008,-0.155029,-0.459407,-0.525700,0.537022,-0.473488
27970,,9.828548,-0.259395,-1.215228,-0.001048,0.023946,0.015919,0.982422,-0.333008,-0.155029,-0.459402,-0.525693,0.537029,-0.473494
27971,,9.840717,-0.246189,-1.174980,0.002809,0.026751,0.017687,0.977783,-0.331055,-0.157471,-0.459414,-0.525657,0.537041,-0.473508
27972,,9.840977,-0.247933,-1.172438,0.003354,0.024766,0.017035,0.984619,-0.330811,-0.157471,-0.459397,-0.525655,0.537039,-0.473530
27973,,9.821728,-0.273609,-1.154641,-0.000356,0.020958,0.018652,0.984619,-0.333008,-0.155029,-0.459403,-0.525620,0.537079,-0.473518
27974,,9.806116,-0.263663,-1.231108,-0.000431,0.021458,0.016963,0.979980,-0.328613,-0.150879,-0.459387,-0.525617,0.537093,-0.473520
27975,,9.897618,-0.295138,-1.198398,-0.000717,0.026747,0.018460,0.984619,-0.335205,-0.148438,-0.459402,-0.525577,0.537109,-0.473532
27976,,9.836061,-0.215167,-1.224351,-0.005049,0.025424,0.019040,0.982178,-0.328613,-0.155273,-0.459404,-0.525549,0.537130,-0.473538
27977,,9.871223,-0.237024,-1.209126,-0.013049,0.025105,0.016998,0.979980,-0.333252,-0.155029,-0.459448,-0.525488,0.537174,-0.473511
27978,,9.881094,-0.242729,-1.239385,-0.009340,0.028910,0.015390,0.982422,-0.335449,-0.155029,-0.459479,-0.525452,0.537188,-0.473506
27979,,9.817393,-0.243779,-1.201125,-0.007220,0.024759,0.019339,0.984619,-0.333008,-0.152832,-0.459511,-0.525389,0.537237,-0.473489
27980,,9.829179,-0.263030,-1.211048,0.001369,0.027900,0.016501,0.979980,-0.330811,-0.159668,-0.459509,-0.525376,0.537231,-0.473513
27981,,9.840987,-0.282198,-1.220800,0.001368,0.027899,0.016504,0.979980,-0.328613,-0.157471,-0.459532,-0.525336,0.537243,-0.473521
27982,,9.862714,-0.273287,-1.213229,0.007674,0.026070,0.016496,0.979980,-0.333252,-0.150635,-0.459508,-0.525343,0.537226,-0.473557
27983,,9.830336,-0.235522,-1.152759,0.005363,0.026413,0.013402,0.979980,-0.330811,-0.150879,-0.459521,-0.525327,0.537219,-0.473569
27984,,9.811052,-0.260981,-1.134588,0.003601,0.028054,0.017917,0.984619,-0.330811,-0.157471,-0.459510,-0.525316,0.537210,-0.473602
27985,,9.852032,-0.260781,-1.192792,0.000695,0.025571,0.019712,0.982178,-0.330811,-0.155273,-0.459517,-0.525276,0.537232,-0.473615
27986,,9.852299,-0.262316,-1.190254,-0.006158,0.026101,0.012112,0.984863,-0.337402,-0.155029,-0.459540,-0.525263,0.537236,-0.473603
27987,,9.831155,-0.274233,-1.192378,-0.000614,0.031040,0.015957,0.982178,-0.328613,-0.155273,-0.459578,-0.525211,0.537244,-0.473614
27988,,9.860722,-0.256152,-1.237824,-0.000878,0.027734,0.015117,0.979980,-0.333252,-0.159668,-0.459584,-0.525197,0.537240,-0.473628
27989,,9.841161,-0.313882,-1.269994,0.008950,0.025899,0.014359,0.984619,-0.333008,-0.157471,-0.459590,-0.525184,0.537235,-0.473643
27990,,9.828336,-0.252264,-1.225024,0.016874,0.026708,0.014732,0.977539,-0.326416,-0.157471,-0.459547,-0.525215,0.537190,-0.473701
27991,,9.809020,-0.277662,-1.206839,0.022493,0.027861,0.012006,0.986816,-0.333008,-0.161865,-0.459527,-0.525236,0.537140,-0.473754
27992,,9.825498,-0.196410,-1.210246,0.011728,0.024070,0.015118,0.982422,-0.333008,-0.159668,-0.459490,-0.525260,0.537115,-0.473792
27993,,9.873884,-0.249081,-1.186990,0.005968,0.023918,0.014464,0.984619,-0.333008,-0.150635,-0.459504,-0.525237,0.537130,-0.473787
27994,,9.852691,-0.261166,-1.189515,0.003253,0.025243,0.015406,0.979980,-0.330811,-0.157471,-0.459492,-0.525238,0.537122,-0.473806
27995,,9.854756,-0.275881,-1.166610,0.008064,0.025075,0.012494,0.984619,-0.333008,-0.152832,-0.459496,-0.525234,0.537110,-0.473819
27996,,9.841703,-0.246479,-1.171986,0.009750,0.027213,0.014565,0.982178,-0.326416,-0.157471,-0.459474,-0.525248,0.537080,-0.473859
27997,,9.849927,-0.238959,-1.222620,0.006705,0.025736,0.012969,0.986816,-0.328369,-0.153076,-0.459482,-0.525241,0.537069,-0.473872
27998,,9.851987,-0.253672,-1.199678,0.006771,0.025234,0.014664,0.984619,-0.330811,-0.157471,-0.459463,-0.525252,0.537051,-0.473899
27999,,9.873531,-0.277078,-1.242437,0.006770,0.025233,0.014667,0.984619,-0.333008,-0.157471,-0.459464,-0.525243,0.537044,-0.473915
28000,,9.840863,-0.271433,-1.232248,0.012588,0.030186,0.011100,0.982422,-0.335449,-0.157227,-0.459451,-0.525266,0.536992,-0.473962
28001,,9.808195,-0.265650,-1.222077,0.015105,0.025053,0.011013,0.980225,-0.337646,-0.155029,-0.459449,-0.525273,0.536970,-0.473982
28002,,9.864678,-0.276805,-1.201315,0.004247,0.030363,0.014764,0.977539,-0.328613,-0.157471,-0.459449,-0.525266,0.536946,-0.474016
28003,,9.861533,-0.251538,-1.239047,0.006214,0.032519,0.009409,0.977783,-0.331055,-0.159668,-0.459493,-0.525240,0.536924,-0.474028
28004,,9.819019,-0.273719,-1.245815,0.003564,0.033345,0.012042,0.982178,-0.330811,-0.155273,-0.459510,-0.525231,0.536888,-0.474061
28005,,9.842666,-0.245217,-1.166951,0.000585,0.031369,0.012135,0.982422,-0.335449,-0.150635,-0.459559,-0.525190,0.536887,-0.474061
28006,,9.841283,-0.233142,-1.184285,0.004108,0.031359,0.011392,0.984619,-0.328613,-0.159668,-0.459570,-0.525189,0.536852,-0.474090
28007,,9.841654,-0.234287,-1.180971,0.002946,0.035825,0.011018,0.984619,-0.335205,-0.150635,-0.459623,-0.525150,0.536827,-0.474110
28008,,9.840342,-0.222246,-1.197895,-0.000516,0.035332,0.013460,0.984619,-0.333008,-0.150635,-0.459653,-0.525123,0.536800,-0.474141
28009,,9.852264,-0.241116,-1.206925,0.001388,0.032683,0.012339,0.984375,-0.328613,-0.153076,-0.459693,-0.525089,0.536783,-0.474161
28010,,9.831204,-0.253089,-1.208543,0.004752,0.036956,0.016492,0.986816,-0.330811,-0.157471,-0.459705,-0.525063,0.536748,-0.474217
28011,,9.821731,-0.250216,-1.172177,0.006529,0.035308,0.011985,0.984619,-0.333008,-0.150635,-0.459743,-0.525035,0.536714,-0.474251
28012,,9.888110,-0.265681,-1.183215,0.003811,0.036635,0.012923,0.977783,-0.335449,-0.157227,-0.459766,-0.525017,0.536672,-0.474295
28013,,9.855504,-0.259978,-1.172358,0.005230,0.035469,0.014154,0.984375,-0.328613,-0.148682,-0.459807,-0.524971,0.536655,-0.474326
28014,,9.831133,-0.213048,-1.164501,0.011792,0.036928,0.015028,0.984619,-0.333008,-0.150635,-0.459805,-0.524965,0.536599,-0.474398
28015,,9.816696,-0.170396,-1.189397,0.003805,0.036631,0.012935,0.982178,-0.330811,-0.148682,-0.459843,-0.524931,0.536562,-0.474439
28016,,9.820396,-0.230772,-1.195266,-0.002638,0.034169,0.015453,0.979980,-0.328613,-0.150879,-0.459870,-0.524897,0.536548,-0.474466
28017,,9.833957,-0.263056,-1.183761,-0.004059,0.035333,0.014230,0.984619,-0.330811,-0.148682,-0.459924,-0.524844,0.536538,-0.474484
28018,,9.835953,-0.277859,-1.159776,-0.002320,0.036966,0.018007,0.979980,-0.328613,-0.148682,-0.459952,-0.524798,0.536524,-0.474525
28019,,9.826458,-0.307480,-1.173603,0.007325,0.036611,0.012218,0.977783,-0.335449,-0.155029,-0.459982,-0.524775,0.536476,-0.474575
28020,,9.858153,-0.270326,-1.147479,0.008802,0.034943,0.015144,0.984375,-0.328613,-0.153076,-0.459982,-0.524767,0.536432,-0.474634
28021,,9.855226,-0.212912,-1.134776,0.009349,0.032959,0.014489,0.989258,-0.335205,-0.155029,-0.460004,-0.524737,0.536410,-0.474669
28022,,9.852422,-0.187824,-1.172390,-0.003519,0.033345,0.013585,0.982178,-0.330811,-0.153076,-0.460036,-0.524708,0.536395,-0.474687
28023,,9.854487,-0.234977,-1.198850,-0.009706,0.034188,0.016948,0.984375,-0.326172,-0.153076,-0.460105,-0.524626,0.536421,-0.474682
28024,,9.854874,-0.236446,-1.195376,-0.003262,0.036642,0.014448,0.980225,-0.335449,-0.150635,-0.460143,-0.524588,0.536400,-0.474711
28025,,9.835382,-0.261657,-1.176490,-0.004565,0.036805,0.016611,0.982178,-0.330811,-0.150879,-0.460202,-0.524518,0.536402,-0.474730
28026,,9.867259,-0.257110,-1.200374,0.006824,0.038079,0.014610,0.986816,-0.333008,-0.150635,-0.460217,-0.524499,0.536354,-0.474791
28027,,9.879048,-0.243848,-1.158833,0.005260,0.034943,0.015917,0.982422,-0.337646,-0.150635,-0.460245,-0.524458,0.536333,-0.474831
28028,,9.813370,-0.231109,-1.141227,0.007976,0.033610,0.014993,0.982422,-0.333008,-0.148438,-0.460244,-0.524452,0.536293,-0.474884
28029,,9.845226,-0.226627,-1.165455,0.000919,0.033638,0.016461,0.984619,-0.330811,-0.155273,-0.460282,-0.524397,0.536292,-0.474909
28030,,9.881590,-0.262034,-1.128418,-0.003363,0.031835,0.018694,0.975586,-0.335449,-0.150635,-0.460297,-0.524359,0.536293,-0.474935
28031,,9.827448,-0.267201,-1.123310,0.001839,0.033950,0.020054,0.982178,-0.330811,-0.150879,-0.460330,-0.524292,0.536304,-0.474965
28032,,9.849449,-0.291027,-1.165085,-0.002064,0.031667,0.016544,0.979980,-0.330811,-0.150879,-0.460347,-0.524263,0.536297,-0.474989
28033,,9.869754,-0.268834,-1.177064,0.007913,0.034100,0.013325,0.982422,-0.333008,-0.146240,-0.460374,-0.524236,0.536267,-0.475027
28034,,9.859964,-0.266155,-1.141191,0.006514,0.029465,0.019710,0.980225,-0.337646,-0.152832,-0.460354,-0.524223,0.536253,-0.475075
28035,,9.835645,-0.219483,-1.134018,0.008021,0.033096,0.016721,0.979980,-0.330811,-0.150879,-0.460372,-0.524185,0.536238,-0.475117
28036,,9.849008,-0.252140,-1.122620,0.000153,0.031813,0.017983,0.984619,-0.335205,-0.150635,-0.460380,-0.524156,0.536230,-0.475151
28037,,9.860913,-0.271514,-1.131687,-0.004791,0.032996,0.017483,0.984619,-0.335205,-0.155029,-0.460429,-0.524089,0.536246,-0.475159
28038,,9.851374,-0.301251,-1.146054,-0.007772,0.031030,0.017553,0.982178,-0.330811,-0.153076,-0.460457,-0.524045,0.536257,-0.475169
28039,,9.828806,-0.300179,-1.168774,0.002920,0.029974,0.018766,0.984619,-0.333008,-0.146240,-0.460480,-0.523994,0.536271,-0.475186
28040,,9.850568,-0.291222,-1.160426,0.002651,0.032475,0.010298,0.977783,-0.331055,-0.153076,-0.460501,-0.523990,0.536235,-0.475211
28041,,9.860719,-0.264649,-1.139980,0.004878,0.026822,0.019344,0.982422,-0.335449,-0.150635,-0.460502,-0.523957,0.536244,-0.475235
28042,,9.826571,-0.245719,-1.150674,-0.000276,0.030009,0.012062,0.982178,-0.330811,-0.153076,-0.460520,-0.523948,0.536225,-0.475250
28043,,9.869758,-0.226266,-1.137202,-0.003702,0.029026,0.016178,0.980225,-0.335449,-0.146240,-0.460561,-0.523894,0.536248,-0.475244
28044,,9.838387,-0.233785,-1.107052,-0.003153,0.027043,0.015519,0.977783,-0.331055,-0.150879,-0.460571,-0.523875,0.536251,-0.475251
28045,,9.839028,-0.267788,-1.154547,-0.005874,0.028376,0.016446,0.982178,-0.330811,-0.144043,-0.460611,-0.523820,0.536277,-0.475244
28046,,9.870977,-0.263239,-1.179216,-0.005377,0.026894,0.014093,0.982422,-0.333008,-0.150635,-0.460629,-0.523801,0.536282,-0.475241
28047,,9.860068,-0.279318,-1.214446,-0.005980,0.029375,0.013063,0.977783,-0.331055,-0.153076,-0.460676,-0.523759,0.536289,-0.475235
28048,,9.841659,-0.317445,-1.175872,0.000528,0.031316,0.012284,0.979980,-0.333252,-0.148438,-0.460695,-0.523748,0.536266,-0.475255
28049,,9.860744,-0.281767,-1.208376,-0.003004,0.031335,0.013009,0.984619,-0.330811,-0.157471,-0.460747,-0.523699,0.536272,-0.475252
28050,,9.852151,-0.292028,-1.152150,0.001435,0.031626,0.015882,0.979980,-0.330811,-0.153076,-0.460756,-0.523679,0.536255,-0.475284
28051,,9.839561,-0.262438,-1.157173,-0.000077,0.033795,0.011263,0.984863,-0.337646,-0.152832,-0.460816,-0.523632,0.536250,-0.475283
28052,,9.841211,-0.276914,-1.133599,0.003292,0.029475,0.013071,0.984619,-0.333008,-0.150635,-0.460821,-0.523630,0.536226,-0.475308
28053,,9.820078,-0.288532,-1.135984,0.005411,0.030621,0.011120,0.984619,-0.330811,-0.148682,-0.460856,-0.523603,0.536213,-0.475318
28054,,9.865030,-0.314778,-1.152094,0.015290,0.028240,0.012154,0.984619,-0.333008,-0.152832,-0.460829,-0.523634,0.536161,-0.475369
28055,,9.840816,-0.267530,-1.145275,0.019628,0.029531,0.011642,0.984619,-0.333008,-0.148438,-0.460818,-0.523649,0.536110,-0.475421
28056,,9.872878,-0.263049,-1.169619,0.019675,0.029029,0.013341,0.982178,-0.328613,-0.153076,-0.460778,-0.523684,0.536049,-0.475489
28057,,9.829828,-0.252540,-1.127098,0.013228,0.032388,0.008201,0.984619,-0.333008,-0.150635,-0.460799,-0.523688,0.535997,-0.475523
28058,,9.831416,-0.266992,-1.103589,0.006860,0.028950,0.014060,0.980225,-0.335449,-0.152832,-0.460791,-0.523692,0.535969,-0.475558
28059,,9.840793,-0.259507,-1.153786,0.003232,0.029972,0.011389,0.982422,-0.333008,-0.148438,-0.460831,-0.523661,0.535964,-0.475559
28060,,9.843616,-0.287106,-1.109943,0.009483,0.028611,0.009758,0.979980,-0.328613,-0.150879,-0.460825,-0.523683,0.535919,-0.475591
28061,,9.819968,-0.271956,-1.153483,0.008625,0.027797,0.007862,0.986816,-0.333008,-0.148438,-0.460847,-0.523688,0.535888,-0.475600
28062,,9.852749,-0.247791,-1.107383,0.010078,0.026127,0.010796,0.979980,-0.333252,-0.144043,-0.460830,-0.523715,0.535850,-0.475629
28063,,9.841958,-0.263697,-1.142853,0.009221,0.025313,0.008899,0.984619,-0.333008,-0.148438,-0.460837,-0.523727,0.535822,-0.475642
28064,,9.840425,-0.218933,-1.110547,0.008668,0.027294,0.009564,0.984619,-0.335205,-0.146240,-0.460830,-0.523751,0.535781,-0.475667
28065,,9.841266,-0.252553,-1.158266,0.004115,0.022210,0.010903,0.984619,-0.330811,-0.148682,-0.460840,-0.523750,0.535780,-0.475660
28066,,9.822525,-0.290389,-1.120286,0.002919,0.027172,0.008840,0.982422,-0.333008,-0.148438,-0.460849,-0.523764,0.535752,-0.475668
28067,,9.820945,-0.245786,-1.088214,0.004204,0.021209,0.014298,0.982178,-0.330811,-0.148682,-0.460848,-0.523757,0.535762,-0.475664
28068,,9.865225,-0.239500,-1.054741,0.005428,0.022038,0.008755,0.979980,-0.330811,-0.148438,-0.460838,-0.523789,0.535739,-0.475665
28069,,9.829969,-0.206708,-1.086890,-0.003761,0.020945,0.012127,0.984619,-0.330811,-0.144043,-0.460862,-0.523771,0.535763,-0.475635
28070,,9.863853,-0.247692,-1.141770,-0.010319,0.019513,0.011191,0.982422,-0.333008,-0.152832,-0.460880,-0.523765,0.535790,-0.475593
28071,,9.830994,-0.241237,-1.133134,-0.011726,0.020681,0.009956,0.984619,-0.330811,-0.146240,-0.460930,-0.523735,0.535828,-0.475535
28072,,9.854430,-0.277609,-1.155615,-0.007002,0.015692,0.011311,0.977783,-0.331055,-0.148438,-0.460929,-0.523746,0.535856,-0.475492
28073,,9.877219,-0.281619,-1.127898,-0.007296,0.020967,0.012846,0.989258,-0.333008,-0.148438,-0.460959,-0.523720,0.535887,-0.475457
28074,,9.856628,-0.325722,-1.181534,-0.002360,0.019771,0.013376,0.982422,-0.333008,-0.150635,-0.460951,-0.523727,0.535900,-0.475442
28075,,9.865473,-0.285440,-1.182444,0.002401,0.020576,0.007123,0.980225,-0.335449,-0.144043,-0.460972,-0.523735,0.535899,-0.475414
28076,,9.865022,-0.253794,-1.130277,0.006020,0.019549,0.009807,0.984619,-0.335205,-0.146240,-0.460951,-0.523771,0.535883,-0.475413
28077,,9.864081,-0.241566,-1.148663,0.000530,0.022726,0.009943,0.989258,-0.337402,-0.150635,-0.460972,-0.523764,0.535886,-0.475398
28078,,9.851533,-0.211618,-1.154829,-0.008706,0.022135,0.011612,0.982178,-0.330811,-0.153076,-0.460992,-0.523755,0.535904,-0.475368
28079,,9.843789,-0.286294,-1.200008,-0.011775,0.021180,0.008267,0.989258,-0.337402,-0.148438,-0.461053,-0.523720,0.535946,-0.475300
28080,,9.875953,-0.281137,-1.225026,-0.013137,0.021849,0.008726,0.982422,-0.335449,-0.146240,-0.461091,-0.523709,0.535967,-0.475250
28081,,9.865709,-0.277381,-1.190185,-0.007986,0.024445,0.008435,0.984619,-0.335205,-0.148438,-0.461146,-0.523678,0.535987,-0.475210
28082,,9.867125,-0.291314,-1.167129,-0.004239,0.028211,0.006907,0.979980,-0.330811,-0.155273,-0.461181,-0.523678,0.535968,-0.475197
28083,,9.866312,-0.278823,-1.184834,-0.012626,0.028433,0.010477,0.984863,-0.339844,-0.139404,-0.461260,-0.523617,0.536001,-0.475150
28084,,9.856083,-0.275082,-1.149583,-0.003689,0.026228,0.006248,0.982422,-0.333008,-0.148438,-0.461290,-0.523625,0.535984,-0.475132
28085,,9.876704,-0.252191,-1.161853,0.001504,0.028323,0.007657,0.982422,-0.335449,-0.146240,-0.461327,-0.523613,0.535964,-0.475131
28086,,9.852961,-0.185015,-1.084700,-0.000669,0.027680,0.007908,0.986816,-0.330811,-0.148682,-0.461350,-0.523619,0.535940,-0.475129
28087,,9.840511,-0.154855,-1.090326,-0.009099,0.028403,0.009777,0.982422,-0.333008,-0.148438,-0.461413,-0.523577,0.535953,-0.475100
28088,,9.833966,-0.242686,-1.114507,-0.019190,0.027005,0.009533,0.979980,-0.333252,-0.150635,-0.461478,-0.523538,0.535979,-0.475050
28089,,9.847769,-0.306977,-1.153650,-0.016170,0.028456,0.011194,0.984619,-0.333008,-0.148438,-0.461561,-0.523470,0.536019,-0.474999
28090,,9.880062,-0.301939,-1.178014,0.003415,0.025667,0.006553,0.984619,-0.335205,-0.150635,-0.461571,-0.523494,0.535987,-0.474999
28091,,9.834792,-0.245342,-1.106609,0.008728,0.026257,0.013054,0.987061,-0.335205,-0.148438,-0.461578,-0.523483,0.535978,-0.475015
28092,,9.821282,-0.202308,-1.132919,0.002131,0.025333,0.010405,0.984619,-0.330811,-0.148682,-0.461581,-0.523495,0.535959,-0.475019
28093,,9.863361,-0.169652,-1.139661,-0.003280,0.027510,0.013928,0.986816,-0.333008,-0.144043,-0.461618,-0.523456,0.535973,-0.475011
28094,,9.854901,-0.212267,-1.134303,-0.014141,0.024302,0.015160,0.984619,-0.333008,-0.148438,-0.461650,-0.523420,0.536008,-0.474981
28095,,9.857018,-0.259285,-1.161768,-0.006520,0.022264,0.013092,0.984619,-0.330811,-0.150879,-0.461679,-0.523392,0.536034,-0.474953
28096,,9.847469,-0.288595,-1.177243,-0.004310,0.022403,0.014544,0.982422,-0.337646,-0.148438,-0.461681,-0.523385,0.536049,-0.474943
28097,,9.824398,-0.254474,-1.150753,0.014982,0.024879,0.011463,0.982178,-0.330811,-0.144043,-0.461673,-0.523395,0.536025,-0.474966
28098,,9.823620,-0.242677,-1.168861,0.010713,0.022594,0.015346,0.980225,-0.335449,-0.148438,-0.461634,-0.523420,0.536006,-0.474998
28099,,9.867745,-0.236800,-1.134706,0.014388,0.027358,0.010440,0.982178,-0.330811,-0.148682,-0.461631,-0.523432,0.535967,-0.475032
28100,,9.868016,-0.238106,-1.132071,0.003011,0.025635,0.014026,0.979980,-0.330811,-0.148438,-0.461623,-0.523436,0.535955,-0.475048
28101,,9.827409,-0.286511,-1.099811,-0.002736,0.025525,0.013276,0.979980,-0.333252,-0.146240,-0.461655,-0.523405,0.535970,-0.475034
28102,,9.859745,-0.282073,-1.124246,0.000836,0.024993,0.014275,0.982422,-0.335449,-0.144043,-0.461651,-0.523404,0.535966,-0.475044
28103,,9.849317,-0.278836,-1.089204,0.000760,0.025994,0.010886,0.984619,-0.330811,-0.150879,-0.461678,-0.523387,0.535964,-0.475040
28104,,9.892322,-0.278807,-1.146432,-0.001005,0.018580,0.014671,0.982666,-0.339844,-0.150391,-0.461661,-0.523396,0.535980,-0.475028
28105,,9.857551,-0.226825,-1.108164,-0.003586,0.024714,0.011375,0.984619,-0.333008,-0.157471,-0.461704,-0.523360,0.536004,-0.474998
28106,,9.857779,-0.247141,-1.176339,0.000758,0.025992,0.010893,0.982178,-0.330811,-0.146240,-0.461712,-0.523366,0.535989,-0.475002
28107,,9.848261,-0.276350,-1.191700,-0.001599,0.021060,0.013648,0.986816,-0.333008,-0.144043,-0.461733,-0.523341,0.536021,-0.474972
28108,,9.846601,-0.231967,-1.159682,0.003001,0.025627,0.014048,0.979980,-0.333252,-0.148438,-0.461726,-0.523344,0.536009,-0.474989
28109,,9.876152,-0.149281,-1.104144,0.002155,0.024818,0.012141,0.986816,-0.333008,-0.144043,-0.461743,-0.523331,0.536008,-0.474988
28110,,9.874491,-0.104847,-1.072099,-0.007865,0.022432,0.015258,0.984619,-0.335205,-0.150635,-0.461753,-0.523314,0.536033,-0.474969
28111,,9.823042,-0.168032,-1.078279,-0.023963,0.025712,0.017470,0.986816,-0.333008,-0.144043,-0.461829,-0.523222,0.536109,-0.474910
28112,,9.873663,-0.312815,-1.112929,-0.022823,0.021249,0.017833,0.984619,-0.333008,-0.146240,-0.461869,-0.523166,0.536179,-0.474855
28113,,9.830028,-0.321628,-1.143075,-0.010450,0.013705,0.018832,0.987061,-0.335205,-0.148438,-0.461870,-0.523136,0.536247,-0.474810
28114,,9.861439,-0.304181,-1.188728,0.006866,0.019813,0.013519,0.982178,-0.326416,-0.153076,-0.461838,-0.523163,0.536238,-0.474821
28115,,9.879345,-0.223352,-1.192353,0.003431,0.018341,0.019305,0.982422,-0.337646,-0.150635,-0.461821,-0.523147,0.536272,-0.474816
28116,,9.869770,-0.253156,-1.208101,-0.000728,0.021357,0.017278,0.982178,-0.330811,-0.148682,-0.461805,-0.523143,0.536288,-0.474819
28117,,9.838809,-0.293035,-1.229186,-0.005407,0.025852,0.017617,0.984619,-0.330811,-0.146240,-0.461838,-0.523088,0.536326,-0.474804
28118,,9.817649,-0.304891,-1.232313,0.003839,0.026420,0.015993,0.979980,-0.330811,-0.148438,-0.461826,-0.523086,0.536316,-0.474829
28119,,9.829606,-0.324185,-1.241592,0.013862,0.028798,0.012890,0.984375,-0.326172,-0.146484,-0.461820,-0.523091,0.536278,-0.474872
28120,,9.881506,-0.245131,-1.159465,0.026809,0.026822,0.019062,0.979980,-0.333252,-0.155029,-0.461742,-0.523133,0.536221,-0.474967
28121,,9.858502,-0.211371,-1.132343,0.019240,0.035168,0.011825,0.987061,-0.335205,-0.148438,-0.461746,-0.523134,0.536159,-0.475031
28122,,9.848027,-0.208567,-1.096592,0.010673,0.030616,0.019567,0.979980,-0.328613,-0.146484,-0.461719,-0.523129,0.536132,-0.475094
28123,,9.870821,-0.232768,-1.137935,0.009244,0.032289,0.016630,0.984619,-0.333008,-0.146240,-0.461727,-0.523103,0.536109,-0.475141
28124,,9.839719,-0.253550,-1.087463,0.006546,0.033131,0.019238,0.980225,-0.335449,-0.146240,-0.461719,-0.523083,0.536085,-0.475198
28125,,9.831081,-0.296652,-1.081489,0.003529,0.031686,0.017564,0.989258,-0.337402,-0.139404,-0.461738,-0.523040,0.536082,-0.475229
28126,,9.873677,-0.284088,-1.158150,0.007649,0.029167,0.017907,0.979980,-0.333252,-0.146240,-0.461719,-0.523035,0.536061,-0.475276
28127,,9.874471,-0.279883,-1.064193,0.011739,0.027148,0.016553,0.984619,-0.335205,-0.146240,-0.461702,-0.523031,0.536039,-0.475323
28128,,9.829148,-0.242880,-1.063831,0.010897,0.026340,0.014642,0.978027,-0.337646,-0.148193,-0.461675,-0.523049,0.536008,-0.475364
28129,,9.871461,-0.210955,-1.070194,0.002486,0.026587,0.018168,0.984863,-0.337646,-0.150635,-0.461688,-0.523008,0.536028,-0.475375
28130,,9.850225,-0.223028,-1.073766,-0.002316,0.017740,0.020260,0.982422,-0.335449,-0.148438,-0.461658,-0.523001,0.536063,-0.475371
28131,,9.862051,-0.242666,-1.083867,-0.005104,0.020087,0.017771,0.982422,-0.333008,-0.148438,-0.461677,-0.522956,0.536119,-0.475340
28132,,9.818582,-0.251530,-1.113951,-0.005075,0.019585,0.019471,0.979980,-0.333252,-0.152832,-0.461662,-0.522940,0.536154,-0.475331
28133,,9.908286,-0.304324,-1.148176,-0.003456,0.022199,0.019909,0.989014,-0.330566,-0.148682,-0.461677,-0.522891,0.536204,-0.475315
28134,,9.896448,-0.294483,-1.225086,-0.000473,0.024139,0.019897,0.980225,-0.335449,-0.148438,-0.461661,-0.522875,0.536220,-0.475331
28135,,9.864329,-0.302085,-1.196093,0.007995,0.022884,0.019776,0.986816,-0.330811,-0.141846,-0.461642,-0.522857,0.536233,-0.475354
28136,,9.841964,-0.281737,-1.149430,0.011531,0.022842,0.019094,0.982178,-0.330811,-0.148682,-0.461593,-0.522873,0.536221,-0.475398
28137,,9.862463,-0.240879,-1.091213,0.010664,0.022537,0.015482,0.982422,-0.333008,-0.146240,-0.461568,-0.522885,0.536206,-0.475426
28138,,9.819065,-0.249762,-1.121036,0.007990,0.022882,0.019784,0.982422,-0.335449,-0.148438,-0.461526,-0.522891,0.536204,-0.475462
28139,,9.852367,-0.259310,-1.124953,0.001410,0.021985,0.017086,0.982422,-0.337646,-0.143799,-0.461528,-0.522867,0.536228,-0.475459
28140,,9.830402,-0.257883,-1.149216,-0.003750,0.019413,0.017332,0.977783,-0.333252,-0.146240,-0.461514,-0.522861,0.536255,-0.475448
28141,,9.874663,-0.271728,-1.185583,-0.006276,0.025049,0.015730,0.982422,-0.335449,-0.148438,-0.461546,-0.522816,0.536286,-0.475433
28142,,9.851590,-0.237701,-1.159324,-0.002685,0.024004,0.018447,0.986816,-0.330811,-0.150879,-0.461539,-0.522798,0.536303,-0.475440
28143,,9.864885,-0.283680,-1.127787,-0.005467,0.026353,0.015956,0.984619,-0.335205,-0.141846,-0.461575,-0.522751,0.536332,-0.475425
28144,,9.874224,-0.244043,-1.128004,-0.000540,0.025135,0.016524,0.982422,-0.333008,-0.148438,-0.461570,-0.522740,0.536336,-0.475436
28145,,9.865357,-0.286857,-1.122844,-0.001352,0.023828,0.016306,0.984375,-0.328613,-0.144287,-0.461581,-0.522713,0.536354,-0.475435
28146,,9.865590,-0.288566,-1.120356,0.002469,0.026569,0.018219,0.979980,-0.333252,-0.144043,-0.461568,-0.522702,0.536353,-0.475462
28147,,9.865824,-0.290234,-1.117860,0.009264,0.023696,0.014271,0.984619,-0.335205,-0.148438,-0.461551,-0.522712,0.536334,-0.475488
28148,,9.864148,-0.246004,-1.086026,0.005491,0.019952,0.015759,0.982422,-0.335449,-0.148438,-0.461518,-0.522730,0.536334,-0.475500
28149,,9.852603,-0.235885,-1.163163,0.000033,0.022651,0.017562,0.986816,-0.333008,-0.146240,-0.461526,-0.522697,0.536364,-0.475494
28150,,9.843677,-0.278796,-1.158255,-0.000779,0.021344,0.017343,0.984619,-0.335205,-0.146240,-0.461510,-0.522693,0.536380,-0.475497
28151,,9.845150,-0.307048,-1.115146,0.008498,0.021383,0.017458,0.982422,-0.335449,-0.148438,-0.461487,-0.522691,0.536384,-0.475517
28152,,9.844699,-0.295515,-1.133589,0.005487,0.019948,0.015768,0.982422,-0.333008,-0.152832,-0.461454,-0.522709,0.536384,-0.475529
28153,,9.843016,-0.251317,-1.101890,0.013376,0.021162,0.014637,0.984619,-0.335205,-0.144043,-0.461433,-0.522717,0.536382,-0.475543
28154,,9.883594,-0.173874,-1.079014,0.001992,0.018992,0.019847,0.979736,-0.326416,-0.150879,-0.461397,-0.522718,0.536403,-0.475553
28155,,9.842155,-0.228284,-1.138862,-0.000831,0.022346,0.013952,0.982422,-0.337646,-0.141602,-0.461409,-0.522703,0.536417,-0.475541
28156,,9.855881,-0.293466,-1.178303,-0.001597,0.020038,0.017130,0.982422,-0.333008,-0.150635,-0.461392,-0.522701,0.536438,-0.475538
28157,,9.867125,-0.299770,-1.208682,-0.002962,0.020713,0.017581,0.982422,-0.335449,-0.148438,-0.461398,-0.522671,0.536474,-0.475523
28158,,9.856259,-0.296809,-1.174294,0.005481,0.019943,0.015782,0.979980,-0.330811,-0.146240,-0.461365,-0.522689,0.536474,-0.475536
28159,,9.801903,-0.300875,-1.172168,0.012051,0.020827,0.018503,0.982422,-0.333008,-0.146240,-0.461331,-0.522691,0.536477,-0.475563
28160,,9.865745,-0.253041,-1.081692,0.011984,0.022328,0.013408,0.975586,-0.333252,-0.141846,-0.461293,-0.522725,0.536450,-0.475594
28161,,9.853717,-0.223479,-1.088161,0.006289,0.021246,0.016010,0.982422,-0.337646,-0.145996,-0.461276,-0.522725,0.536452,-0.475608
28162,,9.853323,-0.212025,-1.106740,0.004708,0.017636,0.018965,0.979980,-0.330811,-0.150879,-0.461231,-0.522738,0.536468,-0.475619
28163,,9.833895,-0.269696,-1.140443,-0.003780,0.019410,0.017365,0.982422,-0.333008,-0.150635,-0.461240,-0.522707,0.536512,-0.475594
28164,,9.846261,-0.302363,-1.130036,-0.007601,0.016674,0.015445,0.980225,-0.337646,-0.152832,-0.461233,-0.522703,0.536550,-0.475562
28165,,9.888764,-0.270574,-1.136952,-0.003782,0.019408,0.017369,0.984619,-0.335205,-0.144043,-0.461248,-0.522665,0.536604,-0.475529
28166,,9.857143,-0.296886,-1.179283,-0.004615,0.018605,0.015447,0.979980,-0.330811,-0.150879,-0.461239,-0.522663,0.536630,-0.475510
28167,,9.856787,-0.285316,-1.197853,-0.000776,0.020837,0.019072,0.982178,-0.330811,-0.144043,-0.461235,-0.522637,0.536663,-0.475506
28168,,9.834757,-0.277541,-1.131090,-0.003845,0.020910,0.012276,0.984863,-0.337646,-0.148438,-0.461238,-0.522640,0.536674,-0.475487
28169,,9.834923,-0.279166,-1.129252,0.002543,0.016499,0.020907,0.987061,-0.335205,-0.152832,-0.461208,-0.522628,0.536711,-0.475487
28170,,9.845913,-0.279474,-1.068730,0.002463,0.018503,0.014109,0.982422,-0.337646,-0.148438,-0.461183,-0.522647,0.536718,-0.475484
28171,,9.867298,-0.263807,-1.172707,-0.005411,0.016799,0.016930,0.977783,-0.331055,-0.141846,-0.461194,-0.522615,0.536776,-0.475443
28172,,9.834879,-0.270821,-1.144495,-0.001612,0.020031,0.017158,0.980225,-0.337646,-0.145996,-0.461176,-0.522613,0.536796,-0.475439
28173,,9.866843,-0.247669,-1.098141,-0.005745,0.023065,0.015105,0.982422,-0.333008,-0.146240,-0.461197,-0.522583,0.536820,-0.475425
28174,,9.856741,-0.263749,-1.134311,-0.010911,0.020509,0.015328,0.982422,-0.337646,-0.150635,-0.461209,-0.522563,0.536857,-0.475393
28175,,9.847596,-0.306275,-1.129751,-0.016078,0.017954,0.015550,0.982422,-0.335449,-0.146240,-0.461249,-0.522513,0.536928,-0.475329
28176,,9.825814,-0.304654,-1.154438,-0.010859,0.019003,0.020433,0.982178,-0.330811,-0.141846,-0.461245,-0.522483,0.536981,-0.475306
28177,,9.880507,-0.304071,-1.152717,-0.005714,0.014514,0.012642,0.979980,-0.333252,-0.150635,-0.461246,-0.522485,0.537014,-0.475266
28178,,9.870408,-0.319744,-1.189179,-0.003073,0.023210,0.009122,0.975586,-0.335449,-0.152832,-0.461260,-0.522493,0.537009,-0.475249
28179,,9.803974,-0.291952,-1.195766,0.006275,0.021221,0.016062,0.982422,-0.333008,-0.148438,-0.461255,-0.522479,0.537030,-0.475246
28180,,9.857360,-0.258861,-1.143426,0.005445,0.020420,0.014138,0.977783,-0.333252,-0.155029,-0.461227,-0.522500,0.537024,-0.475256
28181,,9.878097,-0.223742,-1.176522,-0.006823,0.018474,0.013994,0.982422,-0.333008,-0.150635,-0.461252,-0.522471,0.537073,-0.475209
28182,,9.859568,-0.307389,-1.169162,-0.004388,0.022381,0.014676,0.977783,-0.335449,-0.146240,-0.461254,-0.522463,0.537088,-0.475198
28183,,9.870990,-0.313440,-1.199261,-0.002212,0.023005,0.014457,0.991455,-0.332764,-0.146240,-0.461273,-0.522438,0.537110,-0.475183
28184,,9.807299,-0.358053,-1.194403,0.004319,0.024877,0.013798,0.984619,-0.335205,-0.148438,-0.461261,-0.522447,0.537096,-0.475200
28185,,9.826736,-0.290330,-1.176909,0.020405,0.022003,0.010007,0.982422,-0.333008,-0.146240,-0.461223,-0.522495,0.537047,-0.475239
28186,,9.847038,-0.249012,-1.118292,0.014374,0.027196,0.010774,0.982422,-0.335449,-0.148438,-0.461198,-0.522530,0.536996,-0.475283
28187,,9.835234,-0.219135,-1.124464,0.007045,0.023520,0.012908,0.982422,-0.335449,-0.144043,-0.461195,-0.522532,0.536987,-0.475294
28188,,9.859154,-0.269575,-1.125342,-0.003031,0.021704,0.014234,0.982422,-0.333008,-0.148438,-0.461193,-0.522530,0.537000,-0.475284
28189,,9.837521,-0.267532,-1.149626,-0.005792,0.024063,0.011729,0.987061,-0.335205,-0.148438,-0.461226,-0.522506,0.537014,-0.475262
28190,,9.861049,-0.304519,-1.170931,-0.000871,0.022827,0.012319,0.982422,-0.333008,-0.150635,-0.461225,-0.522512,0.537014,-0.475256
28191,,9.838373,-0.283211,-1.124572,0.001321,0.022948,0.013803,0.980225,-0.335449,-0.146240,-0.461237,-0.522497,0.537026,-0.475248
28192,,9.849482,-0.275920,-1.175089,0.004848,0.023393,0.011440,0.979980,-0.333252,-0.150635,-0.461225,-0.522517,0.537008,-0.475258
28193,,9.881344,-0.252563,-1.128510,0.001871,0.020967,0.013132,0.982422,-0.337646,-0.148438,-0.461231,-0.522509,0.537022,-0.475245
28194,,9.859381,-0.237216,-1.173313,0.003467,0.024572,0.010190,0.977783,-0.335449,-0.155029,-0.461229,-0.522526,0.537002,-0.475251
28195,,9.850200,-0.279627,-1.168174,-0.007689,0.025717,0.016260,0.984619,-0.333008,-0.150635,-0.461273,-0.522466,0.537047,-0.475222
28196,,9.840274,-0.295693,-1.204200,0.000503,0.021643,0.013585,0.982422,-0.333008,-0.150635,-0.461263,-0.522475,0.537050,-0.475220
28197,,9.839722,-0.290936,-1.110708,-0.000618,0.026105,0.013237,0.977539,-0.328613,-0.146484,-0.461290,-0.522449,0.537059,-0.475212
28198,,9.873069,-0.300188,-1.113912,0.002112,0.024746,0.012348,0.982422,-0.335449,-0.146240,-0.461287,-0.522457,0.537047,-0.475220
28199,,9.839528,-0.266946,-1.146841,-0.002245,0.023501,0.012782,0.980225,-0.337646,-0.150635,-0.461306,-0.522442,0.537055,-0.475208
28200,,9.861209,-0.258232,-1.138521,-0.006602,0.022257,0.013216,0.984619,-0.335205,-0.146240,-0.461316,-0.522433,0.537072,-0.475188
28201,,9.851969,-0.300547,-1.133511,-0.006356,0.026039,0.012424,0.986816,-0.333008,-0.150635,-0.461360,-0.522394,0.537094,-0.475164
28202,,9.884678,-0.283227,-1.177835,-0.003061,0.022198,0.012559,0.982178,-0.330811,-0.150879,-0.461363,-0.522395,0.537101,-0.475152
28203,,9.808918,-0.296343,-1.181976,-0.000625,0.026099,0.013253,0.984619,-0.333008,-0.148438,-0.461389,-0.522372,0.537108,-0.475145
28204,,9.852368,-0.290950,-1.146934,0.001847,0.021459,0.011457,0.982422,-0.333008,-0.150635,-0.461380,-0.522390,0.537102,-0.475141
28205,,9.842495,-0.306826,-1.183079,0.007026,0.023500,0.012962,0.984619,-0.337646,-0.141602,-0.461379,-0.522390,0.537096,-0.475148
28206,,9.853116,-0.306825,-1.121800,0.007837,0.024800,0.013196,0.980225,-0.335449,-0.148438,-0.461359,-0.522409,0.537072,-0.475174
28207,,9.873973,-0.258397,-1.174655,0.006448,0.026482,0.010242,0.982422,-0.335449,-0.152832,-0.461370,-0.522410,0.537049,-0.475188
28208,,9.862851,-0.254742,-1.139998,-0.001712,0.022018,0.010420,0.979980,-0.333252,-0.152832,-0.461374,-0.522421,0.537048,-0.475174
28209,,9.841661,-0.265750,-1.143631,0.002348,0.028519,0.011582,0.982422,-0.335449,-0.146240,-0.461410,-0.522392,0.537049,-0.475168
28210,,9.852247,-0.265701,-1.082111,-0.006346,0.025033,0.015838,0.984619,-0.335205,-0.146240,-0.461422,-0.522371,0.537066,-0.475162
28211,,9.853853,-0.286280,-1.150157,-0.005565,0.027838,0.010969,0.989014,-0.330566,-0.144043,-0.461467,-0.522339,0.537071,-0.475148
28212,,9.842960,-0.295795,-1.094841,-0.005824,0.024557,0.010062,0.984619,-0.335205,-0.150635,-0.461489,-0.522335,0.537072,-0.475128
28213,,9.854123,-0.274982,-1.165781,-0.003084,0.022695,0.010876,0.980225,-0.335449,-0.150635,-0.461512,-0.522326,0.537079,-0.475108
28214,,9.845054,-0.330411,-1.140305,-0.001460,0.025294,0.011344,0.975586,-0.337646,-0.148193,-0.461522,-0.522328,0.537072,-0.475105
28215,,9.843186,-0.272500,-1.128819,-0.000898,0.022811,0.012370,0.984619,-0.335205,-0.146240,-0.461547,-0.522303,0.537094,-0.475082
28216,,9.833398,-0.288301,-1.165008,0.000467,0.022131,0.011927,0.982422,-0.335449,-0.150635,-0.461542,-0.522315,0.537091,-0.475078
28217,,9.865077,-0.264991,-1.118192,0.001278,0.023430,0.012163,0.984619,-0.333008,-0.146240,-0.461559,-0.522302,0.537099,-0.475068
28218,,9.831982,-0.244777,-1.130904,0.001824,0.021951,0.009786,0.980225,-0.335449,-0.148438,-0.461555,-0.522323,0.537087,-0.475062
28219,,9.853844,-0.249208,-1.102150,-0.006072,0.020272,0.012563,0.982422,-0.335449,-0.146240,-0.461578,-0.522303,0.537117,-0.475028
28220,,9.855728,-0.282960,-1.150200,-0.003082,0.022190,0.012589,0.980225,-0.337646,-0.145996,-0.461581,-0.522304,0.537124,-0.475015
28221,,9.855951,-0.284168,-1.147988,-0.000904,0.022808,0.012382,0.980225,-0.337646,-0.148193,-0.461599,-0.522288,0.537136,-0.475002
28222,,9.856177,-0.285390,-1.145745,-0.004451,0.022869,0.013037,0.979980,-0.328613,-0.150879,-0.461606,-0.522283,0.537146,-0.474989
28223,,9.846277,-0.287911,-1.202303,-0.005013,0.025350,0.012016,0.984863,-0.337646,-0.148438,-0.461645,-0.522252,0.537164,-0.474964
28224,,9.856660,-0.287753,-1.140986,-0.002274,0.023486,0.012832,0.979980,-0.333252,-0.150635,-0.461649,-0.522251,0.537167,-0.474958
28225,,9.846801,-0.290376,-1.197408,0.000162,0.027382,0.013541,0.984863,-0.337646,-0.150635,-0.461678,-0.522220,0.537175,-0.474956
28226,,9.847228,-0.304819,-1.174411,-0.000916,0.023306,0.010692,0.982422,-0.333008,-0.150635,-0.461683,-0.522229,0.537169,-0.474948
28227,,9.845754,-0.273441,-1.121749,0.005885,0.027936,0.012687,0.980225,-0.335449,-0.148438,-0.461702,-0.522211,0.537161,-0.474958
28228,,9.812765,-0.253369,-1.134111,0.006438,0.025956,0.012010,0.980225,-0.335449,-0.150635,-0.461691,-0.522227,0.537135,-0.474980
28229,,9.846004,-0.249489,-1.157515,0.002890,0.026018,0.012663,0.984619,-0.335205,-0.141846,-0.461712,-0.522206,0.537139,-0.474978
28230,,9.879634,-0.285352,-1.119522,0.001264,0.023420,0.012193,0.977783,-0.335449,-0.150635,-0.461708,-0.522215,0.537132,-0.474980
28231,,9.836853,-0.293056,-1.150163,-0.000104,0.024101,0.012638,0.982422,-0.335449,-0.148438,-0.461726,-0.522199,0.537139,-0.474973
28232,,9.860339,-0.316868,-1.191523,-0.000669,0.027084,0.009916,0.979980,-0.333252,-0.141846,-0.461742,-0.522202,0.537122,-0.474974
28233,,9.858726,-0.272096,-1.159224,0.005060,0.027134,0.010766,0.977783,-0.333252,-0.148438,-0.461755,-0.522199,0.537101,-0.474988
28234,,9.835646,-0.237328,-1.133301,-0.001475,0.024780,0.013087,0.980225,-0.337646,-0.143799,-0.461760,-0.522196,0.537099,-0.474988
28235,,9.814448,-0.248348,-1.137206,-0.004472,0.023366,0.011355,0.984619,-0.337646,-0.143799,-0.461791,-0.522174,0.537116,-0.474963
28236,,9.838225,-0.311826,-1.117211,-0.009391,0.024614,0.010745,0.979980,-0.333252,-0.152832,-0.461821,-0.522160,0.537128,-0.474936
28237,,9.859902,-0.303005,-1.108565,-0.005841,0.024046,0.011802,0.979980,-0.328613,-0.144287,-0.461859,-0.522129,0.537151,-0.474907
28238,,9.848303,-0.259499,-1.135549,-0.000931,0.023801,0.009014,0.984619,-0.333008,-0.146240,-0.461869,-0.522141,0.537140,-0.474896
28239,,9.869991,-0.250573,-1.126891,-0.009394,0.024612,0.010751,0.984619,-0.337646,-0.143799,-0.461911,-0.522117,0.537152,-0.474868
28240,,9.860477,-0.279548,-1.142434,-0.012125,0.024970,0.015041,0.980225,-0.337646,-0.145996,-0.461939,-0.522085,0.537181,-0.474844
28241,,9.839275,-0.290624,-1.146381,-0.015121,0.023557,0.013307,0.982422,-0.335449,-0.148438,-0.461992,-0.522032,0.537227,-0.474799
28242,,9.872680,-0.312984,-1.128985,-0.012391,0.023199,0.009022,0.982422,-0.333008,-0.148438,-0.462030,-0.522019,0.537244,-0.474756
28243,,9.828070,-0.274488,-1.130154,-0.002301,0.023975,0.011173,0.979980,-0.333252,-0.141846,-0.462059,-0.522000,0.537256,-0.474735
28244,,9.882770,-0.247330,-1.167987,-0.006106,0.020764,0.010899,0.980225,-0.335449,-0.146240,-0.462070,-0.522002,0.537269,-0.474707
28245,,9.873318,-0.302730,-1.142752,-0.003670,0.024656,0.011620,0.984619,-0.335205,-0.148438,-0.462096,-0.521984,0.537274,-0.474696
28246,,9.850142,-0.241320,-1.158028,-0.005852,0.024039,0.011824,0.980225,-0.335449,-0.152832,-0.462113,-0.521977,0.537281,-0.474679
28247,,9.864014,-0.292724,-1.217278,-0.007779,0.028208,0.007845,0.979980,-0.330811,-0.146240,-0.462181,-0.521938,0.537294,-0.474641
28248,,9.798076,-0.303848,-1.163190,0.000430,0.022105,0.012004,0.979980,-0.330811,-0.146240,-0.462176,-0.521949,0.537292,-0.474637
28249,,9.852879,-0.290009,-1.180233,0.002866,0.027002,0.009323,0.980225,-0.335449,-0.152832,-0.462197,-0.521949,0.537270,-0.474641
28250,,9.874583,-0.294446,-1.150905,0.006157,0.023156,0.009462,0.978027,-0.337646,-0.150635,-0.462186,-0.521978,0.537245,-0.474649
28251,,9.851452,-0.246108,-1.145810,0.003975,0.023043,0.007963,0.984619,-0.333008,-0.148438,-0.462213,-0.521972,0.537249,-0.474624
28252,,9.841962,-0.288058,-1.140844,0.006411,0.026933,0.008688,0.977783,-0.335449,-0.150635,-0.462213,-0.521994,0.537212,-0.474641
28253,,9.840307,-0.230015,-1.129053,0.002861,0.026497,0.011033,0.986816,-0.333008,-0.148438,-0.462238,-0.521978,0.537209,-0.474637
28254,,9.863989,-0.253865,-1.170205,0.002859,0.026496,0.011036,0.980225,-0.335449,-0.148438,-0.462241,-0.521987,0.537188,-0.474649
28255,,9.831096,-0.273176,-1.121257,-0.002057,0.028250,0.008716,0.982422,-0.337646,-0.150635,-0.462286,-0.521966,0.537183,-0.474634
28256,,9.864466,-0.295609,-1.103280,0.008586,0.027041,0.010203,0.979980,-0.330811,-0.148438,-0.462278,-0.521989,0.537145,-0.474661
28257,,9.853015,-0.278768,-1.089153,0.001229,0.023398,0.012261,0.984619,-0.333008,-0.144043,-0.462296,-0.521973,0.537156,-0.474647
28258,,9.874741,-0.256796,-1.100769,0.002856,0.026996,0.009344,0.979980,-0.330811,-0.153076,-0.462304,-0.521985,0.537130,-0.474656
28259,,9.830210,-0.218381,-1.102066,-0.003947,0.020872,0.012419,0.987061,-0.337402,-0.143799,-0.462325,-0.521969,0.537153,-0.474626
28260,,9.822801,-0.266499,-1.188492,-0.002319,0.024470,0.009502,0.977783,-0.333252,-0.148438,-0.462339,-0.521975,0.537145,-0.474615
28261,,9.877603,-0.266075,-1.184998,-0.000959,0.022279,0.014170,0.984863,-0.337646,-0.148438,-0.462351,-0.521957,0.537163,-0.474604
28262,,9.856425,-0.277135,-1.189036,-0.006429,0.026014,0.012528,0.982178,-0.330811,-0.144043,-0.462373,-0.521941,0.537169,-0.474593
28263,,9.856616,-0.291528,-1.165990,0.004218,0.025806,0.010620,0.980225,-0.335449,-0.148438,-0.462387,-0.521938,0.537155,-0.474598
28264,,9.845082,-0.288129,-1.131373,0.006388,0.024910,0.015532,0.982422,-0.333008,-0.148438,-0.462366,-0.521947,0.537140,-0.474625
28265,,9.864888,-0.220536,-1.113241,0.009951,0.026850,0.008090,0.984619,-0.333008,-0.146240,-0.462379,-0.521956,0.537110,-0.474637
28266,,9.853442,-0.203672,-1.099146,0.003395,0.023503,0.013787,0.975586,-0.335449,-0.150635,-0.462365,-0.521966,0.537102,-0.474648
28267,,9.834229,-0.260602,-1.132865,-0.007251,0.024215,0.013992,0.982422,-0.335449,-0.148438,-0.462403,-0.521925,0.537135,-0.474619
28268,,9.834323,-0.275170,-1.110221,-0.002593,0.019684,0.013694,0.984619,-0.335205,-0.150635,-0.462395,-0.521931,0.537150,-0.474605
28269,,9.834634,-0.263242,-1.128725,-0.001782,0.020979,0.013941,0.979980,-0.330811,-0.148438,-0.462411,-0.521908,0.537179,-0.474580
28270,,9.856386,-0.241564,-1.140743,-0.003964,0.020366,0.014137,0.984619,-0.335205,-0.146240,-0.462408,-0.521907,0.537197,-0.474564
28271,,9.856602,-0.242960,-1.138583,-0.003710,0.023640,0.015068,0.987061,-0.337402,-0.143799,-0.462428,-0.521879,0.537219,-0.474551
28272,,9.847082,-0.272106,-1.154569,-0.003409,0.018386,0.013457,0.979980,-0.330811,-0.146240,-0.462420,-0.521886,0.537238,-0.474530
28273,,9.868402,-0.290191,-1.105178,0.001765,0.020905,0.013316,0.989258,-0.333008,-0.148438,-0.462418,-0.521884,0.537245,-0.474525
28274,,9.902039,-0.273214,-1.149153,-0.003150,0.022162,0.012687,0.982422,-0.335449,-0.150635,-0.462421,-0.521885,0.537252,-0.474513
28275,,9.847856,-0.262715,-1.168897,-0.005338,0.021047,0.014585,0.984619,-0.335205,-0.144043,-0.462443,-0.521856,0.537288,-0.474482
28276,,9.826467,-0.287087,-1.152858,-0.003970,0.020363,0.014148,0.982422,-0.333008,-0.146240,-0.462440,-0.521856,0.537305,-0.474467
28277,,9.838540,-0.293209,-1.182905,-0.005340,0.021046,0.014589,0.986816,-0.333008,-0.152832,-0.462454,-0.521834,0.537332,-0.474446
28278,,9.860536,-0.258212,-1.215318,-0.001784,0.021476,0.012256,0.979980,-0.333252,-0.148438,-0.462453,-0.521841,0.537337,-0.474435
28279,,9.848704,-0.267913,-1.160549,0.004760,0.023309,0.011681,0.982422,-0.333008,-0.152832,-0.462463,-0.521837,0.537338,-0.474429
28280,,9.848941,-0.269206,-1.158233,0.006934,0.023416,0.013194,0.975586,-0.335449,-0.146240,-0.462442,-0.521857,0.537320,-0.474448
28281,,9.868223,-0.241590,-1.078783,0.003382,0.023489,0.013826,0.978027,-0.337646,-0.145996,-0.462451,-0.521841,0.537331,-0.474444
28282,,9.870621,-0.275616,-1.126639,0.001191,0.022374,0.015723,0.980225,-0.335449,-0.148438,-0.462436,-0.521843,0.537336,-0.474450
28283,,9.859114,-0.259019,-1.113008,-0.002609,0.019678,0.013719,0.982422,-0.337646,-0.148438,-0.462449,-0.521823,0.537368,-0.474424
28284,,9.849587,-0.288029,-1.129059,0.001762,0.021401,0.011636,0.978027,-0.339844,-0.148193,-0.462440,-0.521839,0.537363,-0.474420
28285,,9.859748,-0.248294,-1.129260,-0.000174,0.023560,0.014464,0.982422,-0.333008,-0.150635,-0.462458,-0.521808,0.537388,-0.474408
28286,,9.838776,-0.246173,-1.154028,-0.008090,0.022413,0.015476,0.982422,-0.333008,-0.146240,-0.462468,-0.521790,0.537414,-0.474389
28287,,9.850474,-0.278861,-1.142810,-0.010821,0.024284,0.014652,0.986816,-0.333008,-0.139648,-0.462511,-0.521743,0.537452,-0.474356
28288,,9.862394,-0.298268,-1.152150,-0.008905,0.021118,0.015233,0.982422,-0.335449,-0.148438,-0.462520,-0.521727,0.537482,-0.474331
28289,,9.850890,-0.281587,-1.138543,0.001749,0.020892,0.013352,0.979980,-0.333252,-0.146240,-0.462515,-0.521728,0.537485,-0.474330
28290,,9.839650,-0.251629,-1.145363,-0.000991,0.022261,0.014230,0.979980,-0.330811,-0.153076,-0.462509,-0.521730,0.537491,-0.474328
28291,,9.849321,-0.238511,-1.104651,0.001747,0.020891,0.013356,0.979980,-0.330811,-0.148438,-0.462514,-0.521722,0.537507,-0.474313
28292,,9.860942,-0.271260,-1.093729,-0.006180,0.019245,0.016066,0.979980,-0.335449,-0.141846,-0.462509,-0.521714,0.537537,-0.474293
28293,,9.820792,-0.311332,-1.175573,-0.006171,0.019748,0.014365,0.982178,-0.330811,-0.144043,-0.462522,-0.521695,0.537567,-0.474267
28294,,9.886940,-0.342925,-1.163138,-0.000469,0.018770,0.018661,0.978027,-0.339844,-0.148193,-0.462495,-0.521694,0.537592,-0.474267
28295,,9.852008,-0.290414,-1.126596,0.005287,0.020308,0.014443,0.984619,-0.333008,-0.146240,-0.462483,-0.521694,0.537599,-0.474270
28296,,9.829383,-0.229236,-1.142466,0.007468,0.020916,0.014257,0.979980,-0.330811,-0.148438,-0.462451,-0.521718,0.537589,-0.474286
28297,,9.862410,-0.252272,-1.124921,0.004483,0.019517,0.012494,0.982422,-0.335449,-0.146240,-0.462442,-0.521729,0.537591,-0.474281
28298,,9.863214,-0.226977,-1.163911,-0.007534,0.020937,0.013103,0.980225,-0.337646,-0.148193,-0.462452,-0.521722,0.537612,-0.474255
28299,,9.843349,-0.310383,-1.157130,-0.008928,0.020615,0.016949,0.984619,-0.333008,-0.150635,-0.462474,-0.521679,0.537663,-0.474223
28300,,9.831831,-0.293747,-1.143675,-0.001254,0.018984,0.013312,0.982422,-0.333008,-0.148438,-0.462462,-0.521690,0.537675,-0.474209
28301,,9.841409,-0.280566,-1.103236,0.000115,0.018298,0.012877,0.982178,-0.326416,-0.144287,-0.462464,-0.521688,0.537697,-0.474184
28302,,9.853268,-0.299999,-1.112979,-0.003451,0.017872,0.015206,0.977783,-0.333252,-0.146240,-0.462450,-0.521691,0.537722,-0.474166
28303,,9.896958,-0.255441,-1.138874,-0.002614,0.020172,0.012051,0.982422,-0.333008,-0.148438,-0.462457,-0.521692,0.537730,-0.474148
28304,,9.832866,-0.285663,-1.156813,-0.010547,0.018532,0.014751,0.977783,-0.331055,-0.155273,-0.462465,-0.521679,0.537769,-0.474112
28305,,9.833393,-0.273557,-1.175458,-0.014075,0.019617,0.011969,0.984619,-0.330811,-0.148682,-0.462514,-0.521639,0.537825,-0.474044
28306,,9.847275,-0.338536,-1.214595,-0.003174,0.022147,0.012746,0.979980,-0.333252,-0.150635,-0.462516,-0.521640,0.537833,-0.474032
28307,,9.835073,-0.348363,-1.160020,0.008829,0.020216,0.013851,0.982666,-0.339844,-0.148193,-0.462498,-0.521652,0.537831,-0.474039
28308,,9.853482,-0.221957,-1.132958,0.013208,0.021932,0.011780,0.984619,-0.335205,-0.150635,-0.462460,-0.521693,0.537798,-0.474068
28309,,9.841250,-0.231612,-1.078459,0.007228,0.018638,0.009944,0.989258,-0.337402,-0.148438,-0.462454,-0.521708,0.537801,-0.474055
28310,,9.872946,-0.182050,-1.072384,-0.004245,0.017585,0.011557,0.979980,-0.328613,-0.148682,-0.462450,-0.521720,0.537818,-0.474025
28311,,9.841569,-0.233779,-1.075082,-0.016533,0.015240,0.012917,0.982422,-0.335449,-0.150635,-0.462485,-0.521689,0.537883,-0.473951
28312,,9.841700,-0.234784,-1.073661,-0.020886,0.014532,0.011584,0.982422,-0.333008,-0.150635,-0.462516,-0.521671,0.537947,-0.473869
28313,,9.843812,-0.281533,-1.101813,-0.022815,0.017195,0.012712,0.977783,-0.335449,-0.146240,-0.462578,-0.521614,0.538030,-0.473777
28314,,9.858392,-0.320036,-1.182489,-0.022304,0.013704,0.017137,0.984619,-0.330811,-0.148682,-0.462597,-0.521579,0.538114,-0.473701
28315,,9.880328,-0.298423,-1.195023,-0.010257,0.013280,0.013137,0.982178,-0.330811,-0.148682,-0.462608,-0.521568,0.538167,-0.473642
28316,,9.857883,-0.236805,-1.211517,-0.008616,0.016368,0.011940,0.980225,-0.335449,-0.155029,-0.462611,-0.521572,0.538199,-0.473599
28317,,9.848338,-0.265518,-1.227982,-0.009158,0.018850,0.010928,0.984619,-0.333008,-0.150635,-0.462646,-0.521548,0.538241,-0.473542
28318,,9.836423,-0.261771,-1.194228,-0.007804,0.017658,0.012196,0.979980,-0.330811,-0.155273,-0.462650,-0.521550,0.538269,-0.473505
28319,,9.848315,-0.280807,-1.203904,-0.006960,0.019959,0.009044,0.979980,-0.330811,-0.150879,-0.462687,-0.521535,0.538298,-0.473452
28320,,9.850937,-0.314216,-1.251953,-0.004537,0.023328,0.011511,0.979980,-0.330811,-0.144043,-0.462700,-0.521533,0.538303,-0.473436
28321,,9.848355,-0.296112,-1.179100,-0.005351,0.022036,0.011259,0.982422,-0.335449,-0.152832,-0.462723,-0.521522,0.538316,-0.473412
28322,,9.848144,-0.310527,-1.156467,0.003925,0.021972,0.011544,0.982178,-0.328613,-0.150879,-0.462710,-0.521543,0.538304,-0.473415
28323,,9.837558,-0.267034,-1.183666,0.008292,0.023181,0.011181,0.982422,-0.333008,-0.148438,-0.462709,-0.521551,0.538292,-0.473420
28324,,9.847080,-0.253749,-1.142703,0.009679,0.022999,0.009043,0.979980,-0.333252,-0.146240,-0.462689,-0.521590,0.538258,-0.473436
28325,,9.856602,-0.240406,-1.101617,0.007749,0.025663,0.010172,0.982422,-0.333008,-0.150635,-0.462692,-0.521600,0.538231,-0.473452
28326,,9.869487,-0.233030,-1.151464,-0.000733,0.026513,0.011845,0.982422,-0.333008,-0.152832,-0.462702,-0.521599,0.538221,-0.473456
28327,,9.893156,-0.270163,-1.171958,-0.006694,0.023732,0.008292,0.984863,-0.337646,-0.150635,-0.462749,-0.521577,0.538237,-0.473414
28328,,9.817439,-0.281733,-1.178339,0.002564,0.023161,0.010288,0.975586,-0.335449,-0.157227,-0.462745,-0.521596,0.538223,-0.473414
28329,,9.860043,-0.276905,-1.142129,-0.000992,0.023243,0.010906,0.979980,-0.333252,-0.152832,-0.462778,-0.521570,0.538246,-0.473384
28330,,9.870481,-0.236994,-1.142101,-0.000993,0.023242,0.010908,0.977783,-0.335449,-0.148438,-0.462782,-0.521578,0.538241,-0.473376
28331,,9.819150,-0.258217,-1.212481,-0.005344,0.022539,0.009565,0.989258,-0.333008,-0.150635,-0.462820,-0.521557,0.538263,-0.473338
28332,,9.839814,-0.276181,-1.162622,-0.001808,0.021950,0.010656,0.982422,-0.335449,-0.146240,-0.462824,-0.521567,0.538262,-0.473324
28333,,9.840563,-0.263959,-1.180775,-0.001554,0.025218,0.011606,0.977539,-0.326416,-0.146484,-0.462848,-0.521551,0.538264,-0.473316
28334,,9.850015,-0.250664,-1.139737,0.000374,0.022553,0.010481,0.979980,-0.333252,-0.148438,-0.462848,-0.521565,0.538257,-0.473309
28335,,9.838548,-0.233830,-1.125908,-0.000782,0.025497,0.015275,0.986816,-0.333008,-0.152832,-0.462858,-0.521546,0.538261,-0.473315
28336,,9.827092,-0.216938,-1.111996,-0.002350,0.024431,0.009651,0.975342,-0.331055,-0.148438,-0.462872,-0.521552,0.538253,-0.473304
28337,,9.829330,-0.264003,-1.139323,-0.008731,0.023869,0.017953,0.989014,-0.330566,-0.146484,-0.462900,-0.521502,0.538297,-0.473282
28338,,9.850975,-0.255844,-1.130245,-0.015225,0.023575,0.013377,0.982422,-0.337646,-0.152832,-0.462937,-0.521470,0.538331,-0.473243
28339,,9.853741,-0.289496,-1.178212,-0.008948,0.021610,0.013601,0.982422,-0.335449,-0.148438,-0.462968,-0.521438,0.538367,-0.473207
28340,,9.854500,-0.277399,-1.196634,-0.006206,0.020235,0.012733,0.982422,-0.335449,-0.152832,-0.462973,-0.521436,0.538386,-0.473182
28341,,9.842447,-0.273887,-1.162669,-0.003229,0.021621,0.014520,0.984619,-0.333008,-0.148438,-0.462991,-0.521409,0.538417,-0.473159
28342,,9.876900,-0.257104,-1.206230,-0.004836,0.019546,0.012302,0.984619,-0.333008,-0.148438,-0.462992,-0.521413,0.538433,-0.473135
28343,,9.864282,-0.266846,-1.151714,-0.007325,0.024188,0.014125,0.980225,-0.337646,-0.143799,-0.463021,-0.521382,0.538456,-0.473115
28344,,9.843107,-0.277498,-1.156205,-0.006724,0.023221,0.010026,0.980225,-0.335449,-0.155029,-0.463042,-0.521379,0.538463,-0.473090
28345,,9.842738,-0.292016,-1.133642,-0.000513,0.019737,0.015364,0.984619,-0.333008,-0.155029,-0.463045,-0.521360,0.538493,-0.473073
28346,,9.831813,-0.261962,-1.140600,-0.003213,0.022123,0.012827,0.982178,-0.330811,-0.150879,-0.463047,-0.521360,0.538501,-0.473061
28347,,9.841143,-0.248865,-1.099708,-0.006771,0.022209,0.013439,0.987061,-0.339600,-0.152588,-0.463079,-0.521329,0.538536,-0.473026
28348,,9.854245,-0.241648,-1.150048,-0.008422,0.019124,0.014627,0.979980,-0.333252,-0.148438,-0.463083,-0.521320,0.538568,-0.472996
28349,,9.866742,-0.247878,-1.180074,-0.006260,0.019219,0.016158,0.987061,-0.335205,-0.150635,-0.463098,-0.521287,0.538615,-0.472963
28350,,9.845519,-0.258837,-1.185008,-0.006238,0.019724,0.014455,0.984375,-0.326172,-0.150879,-0.463098,-0.521281,0.538640,-0.472941
28351,,9.857448,-0.278168,-1.194342,-0.004565,0.023314,0.011569,0.982178,-0.330811,-0.144043,-0.463125,-0.521266,0.538652,-0.472917
28352,,9.836241,-0.289157,-1.199128,-0.004126,0.018807,0.019398,0.978027,-0.339844,-0.150391,-0.463105,-0.521254,0.538687,-0.472909
28353,,9.868907,-0.312648,-1.181441,0.000061,0.018259,0.012983,0.984619,-0.333008,-0.150635,-0.463102,-0.521253,0.538706,-0.472892
28354,,9.845697,-0.277764,-1.156513,0.003314,0.023414,0.014027,0.982422,-0.335449,-0.148438,-0.463088,-0.521263,0.538699,-0.472904
28355,,9.822509,-0.242924,-1.131404,0.002500,0.022124,0.013768,0.982422,-0.333008,-0.152832,-0.463090,-0.521256,0.538706,-0.472902
28356,,9.822716,-0.244394,-1.129281,-0.003270,0.021106,0.016256,0.977783,-0.335449,-0.150635,-0.463082,-0.521249,0.538725,-0.472895
28357,,9.835935,-0.237347,-1.179552,-0.001874,0.020923,0.014119,0.984619,-0.333008,-0.150635,-0.463095,-0.521228,0.538754,-0.472872
28358,,9.847182,-0.270227,-1.168528,-0.000527,0.019728,0.015392,0.982666,-0.339844,-0.154785,-0.463078,-0.521234,0.538768,-0.472867
28359,,9.858401,-0.303163,-1.157621,-0.001342,0.018439,0.015132,0.982422,-0.333008,-0.146240,-0.463083,-0.521214,0.538807,-0.472839
28360,,9.879989,-0.295246,-1.148849,0.005190,0.019731,0.016321,0.984619,-0.333008,-0.150635,-0.463049,-0.521230,0.538810,-0.472851
28361,,9.889873,-0.269195,-1.128652,0.002215,0.018349,0.014529,0.982422,-0.333008,-0.150635,-0.463036,-0.521234,0.538824,-0.472844
28362,,9.824509,-0.240210,-1.138042,-0.003860,0.022576,0.018666,0.982178,-0.330811,-0.148682,-0.463027,-0.521216,0.538847,-0.472845
28363,,9.837113,-0.246529,-1.167781,-0.007597,0.020918,0.013202,0.984619,-0.335205,-0.155029,-0.463051,-0.521194,0.538877,-0.472813
28364,,9.860027,-0.297513,-1.168100,-0.006837,0.021193,0.016876,0.982422,-0.335449,-0.150635,-0.463051,-0.521178,0.538906,-0.472798
28365,,9.825119,-0.244668,-1.131802,0.000280,0.021011,0.015668,0.986816,-0.333008,-0.150635,-0.463057,-0.521156,0.538935,-0.472784
28366,,9.828003,-0.278682,-1.180032,0.004369,0.018437,0.016075,0.984619,-0.330811,-0.150879,-0.463022,-0.521174,0.538942,-0.472790
28367,,9.848889,-0.284104,-1.150721,0.007396,0.020828,0.014464,0.984619,-0.333008,-0.148438,-0.463004,-0.521184,0.538939,-0.472800
28368,,9.870495,-0.276142,-1.141794,0.003022,0.019632,0.014806,0.979980,-0.328613,-0.150879,-0.462979,-0.521199,0.538943,-0.472803
28369,,9.848001,-0.228014,-1.137569,0.002207,0.018344,0.014545,0.989258,-0.333008,-0.148438,-0.462965,-0.521205,0.538956,-0.472795
28370,,9.869591,-0.220141,-1.128821,-0.009872,0.018803,0.018494,0.979980,-0.333252,-0.152832,-0.462963,-0.521183,0.539002,-0.472769
28371,,9.871751,-0.267436,-1.156660,-0.009816,0.019815,0.015086,0.982178,-0.330811,-0.153076,-0.462986,-0.521151,0.539046,-0.472731
28372,,9.850510,-0.278404,-1.161750,-0.004942,0.018019,0.017463,0.982422,-0.337646,-0.150635,-0.462971,-0.521145,0.539080,-0.472714
28373,,9.817558,-0.271360,-1.155538,-0.004943,0.018019,0.017465,0.984619,-0.335205,-0.148438,-0.462975,-0.521118,0.539128,-0.472686
28374,,9.808761,-0.287277,-1.192532,0.004361,0.018429,0.016094,0.980225,-0.337646,-0.150635,-0.462940,-0.521136,0.539135,-0.472692
28375,,9.884881,-0.278744,-1.181251,0.007920,0.018335,0.015494,0.982422,-0.337646,-0.152832,-0.462913,-0.521144,0.539144,-0.472699
28376,,9.885827,-0.266963,-1.199872,0.005761,0.018245,0.013959,0.984619,-0.335205,-0.148438,-0.462879,-0.521171,0.539143,-0.472703
28377,,9.832279,-0.255958,-1.220832,0.003241,0.022382,0.017493,0.984863,-0.337646,-0.148438,-0.462872,-0.521152,0.539161,-0.472711
28378,,9.839859,-0.269835,-1.139147,0.000043,0.018248,0.013026,0.982422,-0.337646,-0.152832,-0.462855,-0.521169,0.539170,-0.472698
28379,,9.820585,-0.326607,-1.173915,-0.001165,0.020682,0.019539,0.986816,-0.333008,-0.152832,-0.462851,-0.521137,0.539209,-0.472693
28380,,9.842178,-0.318788,-1.165037,-0.003518,0.018341,0.013629,0.980225,-0.337646,-0.152832,-0.462842,-0.521143,0.539229,-0.472673
28381,,9.830651,-0.302005,-1.151895,-0.003550,0.017835,0.015337,0.984619,-0.335205,-0.152832,-0.462848,-0.521124,0.539271,-0.472641
28382,,9.853040,-0.280737,-1.163589,0.002197,0.018334,0.014572,0.987061,-0.335205,-0.150635,-0.462822,-0.521141,0.539279,-0.472637
28383,,9.852057,-0.223219,-1.152561,-0.003582,0.017328,0.017045,0.982422,-0.333008,-0.157471,-0.462819,-0.521121,0.539322,-0.472612
28384,,9.863924,-0.242799,-1.162122,-0.008423,0.019633,0.012961,0.980225,-0.339844,-0.150391,-0.462829,-0.521115,0.539349,-0.472580
28385,,9.833784,-0.267993,-1.206034,-0.007735,0.018893,0.020052,0.984619,-0.330811,-0.146240,-0.462840,-0.521066,0.539415,-0.472547
28386,,9.857352,-0.305958,-1.226820,0.001667,0.020814,0.013573,0.982422,-0.335205,-0.161621,-0.462824,-0.521079,0.539416,-0.472546
28387,,9.844196,-0.315744,-1.172576,0.007972,0.019335,0.012113,0.982178,-0.330811,-0.148682,-0.462811,-0.521094,0.539417,-0.472542
28388,,9.854114,-0.289554,-1.152280,0.006566,0.019519,0.014252,0.982178,-0.330811,-0.153076,-0.462778,-0.521119,0.539412,-0.472553
28389,,9.834556,-0.273931,-1.198381,0.007059,0.016529,0.016968,0.977783,-0.331055,-0.153076,-0.462741,-0.521134,0.539424,-0.472558
28390,,9.822188,-0.270687,-1.164792,0.003004,0.019615,0.014853,0.982422,-0.333008,-0.150635,-0.462716,-0.521150,0.539428,-0.472561
28391,,9.802658,-0.255076,-1.210909,0.003496,0.016625,0.017569,0.977783,-0.335449,-0.150635,-0.462691,-0.521150,0.539455,-0.472555
28392,,9.890471,-0.264782,-1.210718,-0.004052,0.020823,0.012637,0.980225,-0.335449,-0.152832,-0.462692,-0.521152,0.539467,-0.472537
28393,,9.857607,-0.257317,-1.204145,0.000545,0.024766,0.014982,0.984619,-0.335205,-0.152832,-0.462705,-0.521128,0.539481,-0.472536
28394,,9.836430,-0.268317,-1.208844,0.003223,0.022369,0.017534,0.984863,-0.337402,-0.155029,-0.462680,-0.521130,0.539485,-0.472553
28395,,9.826923,-0.297563,-1.224980,0.003255,0.022874,0.015830,0.984863,-0.339844,-0.152588,-0.462682,-0.521111,0.539502,-0.472553
28396,,9.857436,-0.275472,-1.176715,0.012039,0.025752,0.013471,0.982422,-0.333008,-0.148438,-0.462653,-0.521137,0.539467,-0.472593
28397,,9.866518,-0.262842,-1.135440,0.007594,0.023553,0.017214,0.982422,-0.335449,-0.152832,-0.462636,-0.521129,0.539468,-0.472617
28398,,9.836491,-0.288046,-1.179038,0.006032,0.021995,0.013267,0.982178,-0.330811,-0.148682,-0.462613,-0.521150,0.539456,-0.472630
28399,,9.845524,-0.275361,-1.138055,-0.002533,0.021875,0.018300,0.979980,-0.333252,-0.146240,-0.462614,-0.521123,0.539484,-0.472627
28400,,9.846653,-0.263550,-1.156346,0.000316,0.022008,0.012322,0.982422,-0.337646,-0.150635,-0.462608,-0.521134,0.539483,-0.472622
28401,,9.837165,-0.292513,-1.172290,-0.004956,0.027533,0.016720,0.984619,-0.335205,-0.150635,-0.462632,-0.521093,0.539498,-0.472627
28402,,9.850004,-0.298955,-1.201803,-0.004947,0.018525,0.015795,0.986816,-0.333008,-0.152832,-0.462622,-0.521090,0.539526,-0.472608
28403,,9.851155,-0.287125,-1.220156,0.001908,0.024068,0.014573,0.984619,-0.335205,-0.148438,-0.462627,-0.521078,0.539530,-0.472611
28404,,9.860198,-0.274332,-1.178916,0.007656,0.024558,0.013823,0.982666,-0.342041,-0.154785,-0.462606,-0.521095,0.539510,-0.472637
28405,,9.847810,-0.270973,-1.144712,0.006245,0.024744,0.015963,0.989258,-0.335205,-0.155029,-0.462602,-0.521079,0.539514,-0.472654
28406,,9.837325,-0.240990,-1.151476,0.003277,0.023374,0.014149,0.975342,-0.331055,-0.153076,-0.462588,-0.521088,0.539507,-0.472665
28407,,9.817115,-0.238482,-1.176672,-0.005220,0.024270,0.015762,0.982422,-0.335449,-0.155029,-0.462614,-0.521051,0.539537,-0.472647
28408,,9.860178,-0.293742,-1.148998,-0.002512,0.022377,0.016612,0.978027,-0.342285,-0.150391,-0.462606,-0.521042,0.539552,-0.472646
28409,,9.830235,-0.318864,-1.192617,0.000527,0.024757,0.015018,0.984619,-0.335205,-0.150635,-0.462622,-0.521011,0.539572,-0.472641
28410,,9.859668,-0.310011,-1.123665,0.007129,0.027034,0.012835,0.979980,-0.333252,-0.150635,-0.462611,-0.521024,0.539544,-0.472670
28411,,9.850196,-0.266701,-1.150950,0.001566,0.019790,0.017036,0.977783,-0.333252,-0.146240,-0.462599,-0.521015,0.539565,-0.472668
28412,,9.850388,-0.268238,-1.148947,-0.001921,0.020905,0.014212,0.984619,-0.333008,-0.152832,-0.462591,-0.521017,0.539577,-0.472660
28413,,9.864304,-0.261195,-1.198947,-0.006004,0.023492,0.013795,0.986816,-0.330811,-0.150879,-0.462614,-0.520994,0.539595,-0.472643
28414,,9.829419,-0.280162,-1.151629,-0.004632,0.022797,0.013368,0.979980,-0.333252,-0.152832,-0.462621,-0.520988,0.539606,-0.472630
28415,,9.863767,-0.277154,-1.173925,-0.005230,0.024268,0.015778,0.980225,-0.335449,-0.155029,-0.462641,-0.520958,0.539628,-0.472618
28416,,9.851281,-0.273594,-1.139992,-0.011200,0.021028,0.013846,0.984619,-0.333008,-0.150635,-0.462659,-0.520940,0.539660,-0.472584
28417,,9.854457,-0.307358,-1.188147,-0.009866,0.019827,0.015127,0.982422,-0.335449,-0.152832,-0.462685,-0.520905,0.539708,-0.472542
28418,,9.822608,-0.286523,-1.202403,-0.008238,0.022392,0.015673,0.980225,-0.335449,-0.148438,-0.462695,-0.520886,0.539735,-0.472523
28419,,9.854885,-0.310019,-1.183895,0.000340,0.022501,0.010658,0.986816,-0.333008,-0.148438,-0.462709,-0.520882,0.539737,-0.472511
28420,,9.811380,-0.270726,-1.186839,0.003007,0.020099,0.013216,0.979980,-0.330811,-0.159668,-0.462688,-0.520901,0.539736,-0.472511
28421,,9.832999,-0.262782,-1.177667,0.001632,0.020793,0.013647,0.984863,-0.337646,-0.150635,-0.462690,-0.520897,0.539750,-0.472498
28422,,9.854617,-0.254762,-1.168493,-0.002706,0.020122,0.012254,0.982422,-0.333008,-0.157471,-0.462687,-0.520905,0.539759,-0.472481
28423,,9.866501,-0.274186,-1.177783,-0.006270,0.020227,0.012841,0.984863,-0.337402,-0.155029,-0.462712,-0.520881,0.539795,-0.472442
28424,,9.845296,-0.284665,-1.182946,-0.004082,0.020815,0.012687,0.982422,-0.335449,-0.155029,-0.462714,-0.520883,0.539808,-0.472424
28425,,9.858246,-0.290830,-1.212794,-0.004380,0.017048,0.013421,0.982422,-0.333008,-0.148438,-0.462727,-0.520865,0.539852,-0.472380
28426,,9.823165,-0.309909,-1.165974,-0.003351,0.021083,0.016379,0.982422,-0.337646,-0.152832,-0.462718,-0.520858,0.539872,-0.472373
28427,,9.855614,-0.261121,-1.158640,0.000336,0.022497,0.010675,0.982422,-0.335449,-0.144043,-0.462731,-0.520856,0.539873,-0.472362
28428,,9.846116,-0.289699,-1.174871,-0.003229,0.022603,0.011260,0.982422,-0.335449,-0.150635,-0.462739,-0.520860,0.539876,-0.472347
28429,,9.867753,-0.281588,-1.165483,-0.003272,0.022096,0.012970,0.984619,-0.335205,-0.150635,-0.462749,-0.520850,0.539885,-0.472338
28430,,9.825157,-0.301266,-1.177723,-0.005420,0.022014,0.011419,0.977783,-0.333252,-0.155029,-0.462760,-0.520850,0.539894,-0.472316
28431,,9.845943,-0.233956,-1.159219,-0.007051,0.019450,0.010872,0.984619,-0.335205,-0.150635,-0.462787,-0.520835,0.539925,-0.472272
28432,,9.867267,-0.298210,-1.138824,-0.006839,0.022201,0.013558,0.982422,-0.333008,-0.155029,-0.462797,-0.520824,0.539943,-0.472252
28433,,9.836638,-0.263793,-1.173611,-0.004906,0.019529,0.012429,0.979980,-0.333252,-0.159668,-0.462814,-0.520811,0.539971,-0.472219
28434,,9.860213,-0.301392,-1.194078,0.001705,0.021797,0.010263,0.979980,-0.333252,-0.150635,-0.462809,-0.520831,0.539961,-0.472213
28435,,9.846442,-0.310993,-1.140054,0.008446,0.016800,0.013246,0.984619,-0.330811,-0.155273,-0.462786,-0.520848,0.539972,-0.472204
28436,,9.844647,-0.266548,-1.108607,0.014242,0.017785,0.010806,0.979980,-0.333252,-0.152832,-0.462736,-0.520904,0.539943,-0.472223
28437,,9.845164,-0.195220,-1.118022,0.000632,0.017256,0.009012,0.982422,-0.333008,-0.155029,-0.462741,-0.520919,0.539955,-0.472189
28438,,9.847294,-0.242005,-1.146015,-0.015043,0.017879,0.013470,0.984863,-0.339844,-0.152588,-0.462762,-0.520901,0.540002,-0.472136
28439,,9.826855,-0.311401,-1.160793,-0.022129,0.018603,0.012925,0.978027,-0.337646,-0.150635,-0.462823,-0.520843,0.540079,-0.472051
28440,,9.819631,-0.313401,-1.218421,-0.007961,0.017152,0.014022,0.984619,-0.333008,-0.155029,-0.462821,-0.520841,0.540113,-0.472016
28441,,9.855202,-0.296868,-1.261863,0.004454,0.011401,0.008464,0.979980,-0.330811,-0.150879,-0.462802,-0.520877,0.540129,-0.471977
28442,,9.853386,-0.252340,-1.230792,0.009770,0.015591,0.014541,0.980225,-0.335449,-0.152832,-0.462749,-0.520918,0.540126,-0.471987
28443,,9.851198,-0.280391,-1.188229,0.009300,0.018581,0.011831,0.984619,-0.333008,-0.152832,-0.462725,-0.520944,0.540117,-0.471992
28444,,9.851380,-0.281758,-1.186397,0.005689,0.018184,0.014120,0.982422,-0.337646,-0.155029,-0.462690,-0.520971,0.540117,-0.471996
28445,,9.864420,-0.288152,-1.216306,0.004873,0.016902,0.013845,0.984619,-0.335205,-0.155029,-0.462673,-0.520980,0.540134,-0.471984
28446,,9.852931,-0.271273,-1.203218,0.005174,0.020667,0.013119,0.979980,-0.333252,-0.152832,-0.462649,-0.521003,0.540126,-0.471991
28447,,9.845795,-0.273606,-1.260725,0.008390,0.016284,0.014978,0.982422,-0.333008,-0.150635,-0.462617,-0.521019,0.540138,-0.471990
28448,,9.834355,-0.256618,-1.247375,0.006382,0.026726,0.009256,0.979980,-0.330811,-0.153076,-0.462616,-0.521041,0.540104,-0.472007
28449,,9.854791,-0.262124,-1.217429,0.006407,0.018449,0.017822,0.980225,-0.337646,-0.148193,-0.462583,-0.521047,0.540115,-0.472019
28450,,9.819503,-0.281308,-1.170317,-0.002776,0.028607,0.014962,0.979980,-0.333252,-0.155029,-0.462597,-0.521028,0.540113,-0.472030
28451,,9.839938,-0.286760,-1.140087,-0.004664,0.022787,0.013428,0.987061,-0.335205,-0.152832,-0.462618,-0.521005,0.540134,-0.472011
28452,,9.830435,-0.315519,-1.156320,-0.002475,0.023371,0.013281,0.980225,-0.335449,-0.155029,-0.462621,-0.521003,0.540138,-0.472005
28453,,9.853304,-0.294267,-1.167226,-0.003291,0.022090,0.013005,0.982178,-0.330811,-0.148682,-0.462640,-0.520983,0.540160,-0.471983
28454,,9.819176,-0.299779,-1.140857,0.000785,0.019493,0.013435,0.980225,-0.335449,-0.152832,-0.462624,-0.520997,0.540166,-0.471976
28455,,9.810183,-0.256090,-1.168705,-0.004364,0.017551,0.011747,0.982422,-0.333008,-0.155029,-0.462630,-0.520998,0.540188,-0.471944
28456,,9.863590,-0.270532,-1.143036,-0.006347,0.019718,0.014588,0.979980,-0.333252,-0.157227,-0.462630,-0.520992,0.540214,-0.471922
28457,,9.866309,-0.245282,-1.181960,-0.009913,0.019830,0.015164,0.984863,-0.337646,-0.152832,-0.462658,-0.520955,0.540265,-0.471876
28458,,9.836634,-0.269953,-1.226417,-0.004414,0.017043,0.013460,0.984863,-0.337402,-0.155029,-0.462649,-0.520963,0.540289,-0.471849
28459,,9.880313,-0.311925,-1.219137,-0.006861,0.022200,0.013591,0.977783,-0.333252,-0.150635,-0.462677,-0.520931,0.540323,-0.471818
28460,,9.844216,-0.271779,-1.163054,-0.002019,0.020374,0.016010,0.984619,-0.335205,-0.152832,-0.462664,-0.520930,0.540340,-0.471812
28461,,9.835992,-0.287442,-1.199845,-0.003906,0.023555,0.015436,0.986816,-0.333008,-0.150635,-0.462679,-0.520904,0.540360,-0.471803
28462,,9.834928,-0.302217,-1.177150,-0.002532,0.022857,0.015012,0.982422,-0.337646,-0.150635,-0.462676,-0.520899,0.540370,-0.471800
28463,,9.828020,-0.304545,-1.234371,0.003734,0.020841,0.015298,0.979980,-0.333252,-0.150635,-0.462662,-0.520900,0.540374,-0.471808
28464,,9.846392,-0.264442,-1.174709,-0.000343,0.023439,0.014870,0.982666,-0.339844,-0.152588,-0.462656,-0.520898,0.540378,-0.471812
28465,,9.826553,-0.261664,-1.200122,0.005462,0.024413,0.012446,0.984863,-0.337646,-0.150635,-0.462656,-0.520898,0.540368,-0.471823
28466,,9.817061,-0.290542,-1.216419,0.003729,0.020839,0.015304,0.979980,-0.333252,-0.148438,-0.462631,-0.520910,0.540369,-0.471832
28467,,9.838674,-0.282940,-1.206967,0.005919,0.021420,0.015161,0.980225,-0.337646,-0.148193,-0.462612,-0.520917,0.540365,-0.471849
28468,,9.850570,-0.302834,-1.215945,0.003167,0.022815,0.016015,0.982422,-0.333008,-0.152832,-0.462592,-0.520922,0.540365,-0.471864
28469,,9.839137,-0.285968,-1.202475,0.006835,0.023713,0.012029,0.982422,-0.335449,-0.150635,-0.462585,-0.520931,0.540348,-0.471879
28470,,9.846407,-0.286484,-1.140765,0.003216,0.023321,0.014310,0.982422,-0.337646,-0.150635,-0.462570,-0.520939,0.540342,-0.471891
28471,,9.861034,-0.279478,-1.190379,-0.001624,0.025150,0.011889,0.982422,-0.337646,-0.150635,-0.462591,-0.520924,0.540343,-0.471887
28472,,9.850989,-0.249203,-1.197126,0.001278,0.025995,0.015447,0.984619,-0.335205,-0.155029,-0.462586,-0.520919,0.540338,-0.471903
28473,,9.828492,-0.273193,-1.181532,-0.002290,0.026111,0.016019,0.980225,-0.335449,-0.155029,-0.462604,-0.520886,0.540354,-0.471904
28474,,9.850125,-0.265531,-1.171829,-0.005554,0.020995,0.014894,0.977783,-0.333252,-0.155029,-0.462605,-0.520878,0.540375,-0.471887
28475,,9.832287,-0.308565,-1.227136,-0.001733,0.024133,0.015317,0.984863,-0.339844,-0.154785,-0.462622,-0.520849,0.540397,-0.471877
28476,,9.820868,-0.291642,-1.213600,0.001886,0.024521,0.013043,0.987061,-0.339600,-0.157227,-0.462617,-0.520855,0.540388,-0.471886
28477,,9.841103,-0.297257,-1.183500,0.005905,0.021411,0.015189,0.984863,-0.337402,-0.157227,-0.462610,-0.520845,0.540404,-0.471886
28478,,9.851037,-0.271395,-1.162788,0.000961,0.022228,0.016183,0.982422,-0.335449,-0.155029,-0.462594,-0.520845,0.540411,-0.471893
28479,,9.862926,-0.291236,-1.171737,-0.001177,0.022155,0.014618,0.982422,-0.335205,-0.159424,-0.462608,-0.520822,0.540437,-0.471875
28480,,9.863136,-0.292645,-1.169620,-0.001994,0.020876,0.014337,0.977783,-0.335449,-0.159424,-0.462601,-0.520824,0.540449,-0.471867
28481,,9.813160,-0.254147,-1.232421,-0.001794,0.023623,0.017039,0.980225,-0.337646,-0.150635,-0.462620,-0.520783,0.540488,-0.471848
28482,,9.845055,-0.278067,-1.213336,-0.003823,0.024565,0.012054,0.980225,-0.335449,-0.152832,-0.462632,-0.520778,0.540490,-0.471839
28483,,9.878361,-0.288755,-1.214745,-0.002667,0.021836,0.018469,0.977783,-0.333252,-0.152832,-0.462633,-0.520748,0.540521,-0.471835
28484,,9.855769,-0.312859,-1.199351,-0.001488,0.027383,0.016329,0.979980,-0.330811,-0.155273,-0.462637,-0.520731,0.540522,-0.471850
28485,,9.821513,-0.318472,-1.172702,0.004014,0.024586,0.014636,0.982422,-0.337646,-0.155029,-0.462638,-0.520722,0.540521,-0.471859
28486,,9.854802,-0.329147,-1.174094,0.003758,0.021331,0.013646,0.982422,-0.337646,-0.159424,-0.462618,-0.520739,0.540517,-0.471866
28487,,9.875932,-0.262499,-1.155079,0.009715,0.024535,0.015648,0.982666,-0.339844,-0.150391,-0.462610,-0.520728,0.540519,-0.471882
28488,,9.843098,-0.254800,-1.149119,-0.004756,0.022272,0.015199,0.984619,-0.335205,-0.155029,-0.462612,-0.520718,0.540537,-0.471872
28489,,9.810259,-0.246915,-1.143246,-0.006077,0.023478,0.013915,0.979980,-0.333252,-0.150635,-0.462638,-0.520687,0.540563,-0.471851
28490,,9.846988,-0.289832,-1.194761,-0.012597,0.022251,0.012624,0.982422,-0.335449,-0.155029,-0.462666,-0.520666,0.540592,-0.471813
28491,,9.827768,-0.345945,-1.229805,-0.010520,0.021813,0.015907,0.982422,-0.335449,-0.150635,-0.462693,-0.520627,0.540634,-0.471781
28492,,9.850891,-0.324827,-1.240506,0.001113,0.023739,0.011091,0.978027,-0.342285,-0.148193,-0.462693,-0.520638,0.540624,-0.471781
28493,,9.837537,-0.261944,-1.197232,0.008446,0.026241,0.012675,0.984619,-0.335205,-0.152832,-0.462687,-0.520640,0.540601,-0.471810
28494,,9.847538,-0.235698,-1.176044,0.000608,0.026223,0.010094,0.982422,-0.337646,-0.148438,-0.462697,-0.520648,0.540583,-0.471813
28495,,9.846305,-0.250130,-1.153004,-0.009340,0.027359,0.013773,0.984619,-0.330811,-0.153076,-0.462738,-0.520606,0.540601,-0.471798
28496,,9.838847,-0.324591,-1.198509,-0.004142,0.029790,0.013789,0.979980,-0.333252,-0.155029,-0.462762,-0.520584,0.540595,-0.471806
28497,,9.845344,-0.265963,-1.127130,-0.010975,0.024805,0.013205,0.980225,-0.335449,-0.155029,-0.462805,-0.520545,0.540624,-0.471773
28498,,9.837396,-0.281263,-1.163925,-0.007721,0.020920,0.013361,0.977783,-0.335449,-0.152832,-0.462815,-0.520537,0.540647,-0.471746
28499,,9.842676,-0.301367,-1.232332,-0.007546,0.022443,0.008235,0.982666,-0.339844,-0.152588,-0.462857,-0.520519,0.540667,-0.471702
28500,,9.852625,-0.274847,-1.211574,-0.007665,0.021426,0.011656,0.980225,-0.337646,-0.152832,-0.462872,-0.520514,0.540683,-0.471674
28501,,9.862979,-0.307688,-1.200064,-0.002525,0.023348,0.013384,0.984863,-0.337646,-0.150635,-0.462891,-0.520490,0.540702,-0.471660
28502,,9.818482,-0.281118,-1.183194,-0.001846,0.022386,0.009256,0.977783,-0.335449,-0.155029,-0.462899,-0.520503,0.540697,-0.471644
28503,,9.820296,-0.268804,-1.201332,-0.002468,0.023855,0.011678,0.986816,-0.333008,-0.152832,-0.462922,-0.520486,0.540708,-0.471628
28504,,9.852044,-0.292596,-1.182020,-0.010169,0.026079,0.013506,0.987061,-0.339600,-0.150391,-0.462951,-0.520459,0.540725,-0.471609
28505,,9.830926,-0.302736,-1.187113,-0.013118,0.024734,0.011645,0.978027,-0.337646,-0.148193,-0.463001,-0.520420,0.540752,-0.471571
28506,,9.875924,-0.331299,-1.199316,-0.008112,0.024417,0.008959,0.979980,-0.330811,-0.153076,-0.463032,-0.520415,0.540756,-0.471543
28507,,9.842739,-0.263779,-1.184123,-0.008174,0.023908,0.010671,0.982422,-0.333008,-0.152832,-0.463067,-0.520393,0.540770,-0.471516
28508,,9.831301,-0.246435,-1.170807,-0.005482,0.021998,0.011537,0.982422,-0.335449,-0.152832,-0.463078,-0.520392,0.540780,-0.471494
28509,,9.844843,-0.252510,-1.199937,-0.008738,0.025883,0.011387,0.986816,-0.330811,-0.150879,-0.463122,-0.520361,0.540797,-0.471468
28510,,9.843501,-0.266822,-1.177087,-0.002415,0.024357,0.009989,0.982666,-0.339844,-0.154785,-0.463135,-0.520365,0.540790,-0.471457
28511,,9.832430,-0.308639,-1.173053,-0.001162,0.022639,0.012988,0.980225,-0.335449,-0.152832,-0.463147,-0.520354,0.540800,-0.471446
28512,,9.842354,-0.282434,-1.152138,0.002469,0.023022,0.010726,0.979980,-0.333252,-0.150635,-0.463142,-0.520371,0.540787,-0.471447
28513,,9.854271,-0.301886,-1.160928,-0.001103,0.023147,0.011282,0.986816,-0.330811,-0.153076,-0.463157,-0.520364,0.540790,-0.471436
28514,,9.857792,-0.276151,-1.199443,-0.005364,0.023013,0.008128,0.982422,-0.335449,-0.152832,-0.463179,-0.520371,0.540789,-0.471410
28515,,9.846354,-0.258905,-1.186101,-0.007556,0.023656,0.016103,0.982422,-0.337646,-0.157227,-0.463201,-0.520336,0.540818,-0.471392
28516,,9.838567,-0.274173,-1.222849,-0.008184,0.023905,0.010686,0.982422,-0.337646,-0.155029,-0.463227,-0.520327,0.540828,-0.471366
28517,,9.825479,-0.270175,-1.189101,-0.008248,0.023396,0.012398,0.984619,-0.335205,-0.155029,-0.463268,-0.520288,0.540864,-0.471328
28518,,9.858783,-0.280659,-1.190216,-0.002486,0.023844,0.011717,0.986816,-0.333008,-0.155029,-0.463275,-0.520289,0.540863,-0.471320
28519,,9.816295,-0.299880,-1.203114,0.001836,0.024483,0.013168,0.987061,-0.335205,-0.155029,-0.463287,-0.520278,0.540866,-0.471318
28520,,9.836218,-0.305454,-1.172871,0.010101,0.020277,0.010640,0.984619,-0.330811,-0.155273,-0.463255,-0.520320,0.540841,-0.471332
28521,,9.849520,-0.252718,-1.192539,0.011422,0.028053,0.012945,0.982422,-0.335449,-0.152832,-0.463251,-0.520324,0.540811,-0.471365
28522,,9.856096,-0.253272,-1.130477,0.003274,0.024290,0.011042,0.984863,-0.339844,-0.157227,-0.463246,-0.520339,0.540794,-0.471372
28523,,9.834973,-0.263499,-1.135723,-0.005311,0.024737,0.014276,0.982422,-0.335449,-0.152832,-0.463277,-0.520301,0.540822,-0.471352
28524,,9.825546,-0.292141,-1.151945,-0.010197,0.026074,0.013540,0.982422,-0.337646,-0.155029,-0.463306,-0.520275,0.540839,-0.471333
28525,,9.852607,-0.303435,-1.212279,-0.008820,0.025372,0.013122,0.984619,-0.333008,-0.155029,-0.463348,-0.520233,0.540867,-0.471305
28526,,9.851144,-0.318018,-1.189483,-0.003938,0.024033,0.013864,0.984619,-0.333008,-0.152832,-0.463355,-0.520225,0.540875,-0.471298
28527,,9.829726,-0.269201,-1.185548,0.007338,0.021672,0.011505,0.982178,-0.330811,-0.155273,-0.463346,-0.520240,0.540864,-0.471303
28528,,9.818247,-0.252101,-1.172490,0.000690,0.019444,0.013599,0.982178,-0.330811,-0.150879,-0.463330,-0.520254,0.540871,-0.471296
28529,,9.847766,-0.230234,-1.123620,-0.003246,0.023074,0.009734,0.982422,-0.333008,-0.150635,-0.463354,-0.520250,0.540873,-0.471274
28530,,9.840048,-0.245411,-1.160621,-0.010027,0.019830,0.015247,0.984619,-0.330811,-0.155273,-0.463362,-0.520234,0.540908,-0.471243
28531,,9.828812,-0.287270,-1.157117,-0.011526,0.018298,0.011241,0.982178,-0.330811,-0.150879,-0.463392,-0.520218,0.540945,-0.471190
28532,,9.863797,-0.284522,-1.179000,-0.008651,0.019127,0.014830,0.975342,-0.331055,-0.155273,-0.463395,-0.520207,0.540978,-0.471161
28533,,9.854075,-0.254119,-1.186338,-0.006954,0.022183,0.013711,0.982178,-0.330811,-0.153076,-0.463418,-0.520185,0.541002,-0.471135
28534,,9.846373,-0.269429,-1.223463,-0.010848,0.018554,0.014960,0.980225,-0.335449,-0.157227,-0.463425,-0.520170,0.541042,-0.471098
28535,,9.858259,-0.289081,-1.232599,-0.002821,0.020076,0.012454,0.982422,-0.333008,-0.155029,-0.463439,-0.520160,0.541065,-0.471070
